Time, UTC Date, UTC Time, Label, Latitude, Longitude, Altitude, Speed, HDOP, Satelites, Course, Fix, Roll Degrees, Pitch Degrees, Dynamic Magnitude, Jerk, Jerk Std, Acceleration X, Acceleration Y, Acceleration Z, Standard Deviation, Energy, Zero Crossings
285,190526,185550.000,0,58.37861,8.678916,61.6,0.0,2.19,4,128.26,1,0.312755,9.675190,0.001412,0.040969,0.037074,0.000078,0.001369,0.000337,0.000950,0.000004,24.000001
299,190526,185611.000,0,58.37861,8.678888,62.7,1.88,2.19,4,128.26,1,0.295989,9.645433,0.001247,0.060792,0.041487,-0.000570,0.000201,-0.001090,0.001258,0.000007,25.000000
306,190526,185612.000,0,58.37862,8.678895,62.5,1.81,2.19,4,15.1,1,0.295412,9.625698,0.005149,0.109074,0.036085,0.001431,-0.004921,-0.000497,0.001151,0.000006,24.000001
320,190526,185633.000,0,58.37858,8.678809,60.1,0.0,2.19,4,106.79,1,0.281012,9.614561,0.002118,0.101104,0.053404,-0.000484,0.002042,-0.000287,0.001417,0.000011,20.000000
328,190526,185634.000,0,58.37858,8.678815,59.9,0.0,2.19,4,181.85,1,0.278159,9.604260,0.002059,0.084240,0.050401,0.001242,-0.001333,0.000960,0.001285,0.000009,23.000000
335,190526,185654.000,0,58.37862,8.678824,57.8,0.0,2.2,4,181.85,1,0.271989,9.600054,0.005318,0.069016,0.043101,0.001088,-0.004893,0.001776,0.001327,0.000009,25.000000
343,190526,185655.000,0,58.37862,8.678824,57.7,0.0,2.2,4,330.52,1,0.264253,9.604929,0.001845,0.131318,0.051860,-0.000730,0.000370,0.001654,0.001442,0.000009,23.000000
350,190526,185656.000,0,58.37862,8.678832,57.6,0.0,2.2,4,147.34,1,0.280186,9.613720,0.002150,0.074509,0.054502,0.000427,0.001928,0.000850,0.001372,0.000010,21.000001
358,190526,185716.000,0,58.37859,8.678833,55.9,0.0,2.2,4,200.8,1,0.281398,9.615369,0.002192,0.114741,0.041249,0.000367,-0.001867,-0.001088,0.001159,0.000006,29.000001
365,190526,185717.000,0,58.37859,8.678833,55.9,0.0,2.2,4,200.8,1,0.284922,9.622934,0.001603,0.066020,0.032884,0.000904,-0.001322,0.000052,0.000896,0.000004,26.000001
373,190526,185718.000,0,58.37859,8.678833,55.9,0.0,2.2,4,200.8,1,0.275641,9.614543,0.003999,0.142348,0.036540,0.000394,-0.003970,0.000285,0.000905,0.000005,26.000001
380,190526,185738.000,0,58.37858,8.678857,47.7,2.17,2.2,4,232.43,1,0.271876,9.619285,0.001515,0.052972,0.037962,-0.000625,0.001348,-0.000294,0.000850,0.000006,20.000000
388,190526,185739.000,0,58.37856,8.678864,47.6,2.22,2.21,4,140.67,1,0.267131,9.621880,0.001336,0.032058,0.037145,0.000542,0.000944,-0.000774,0.001172,0.000006,20.000000
408,190526,185800.000,0,58.37852,8.678915,46.1,1.81496,2.21,4,294.05,1,0.253712,9.622231,0.002733,0.060918,0.047288,0.001052,-0.002494,0.000378,0.001333,0.000008,23.000000
416,190526,185801.000,0,58.37852,8.67891,46.1,1.82,2.21,4,294.05,1,0.234596,9.633656,0.001525,0.050539,0.047031,0.000052,0.000519,0.001433,0.001191,0.000008,26.000001
424,190526,185821.000,0,58.37852,8.678885,46.0,0.0,2.16,5,269.67,1,0.234504,9.615939,0.004720,0.108355,0.044141,0.002172,0.004060,0.001041,0.001384,0.000009,30.000000
431,190526,185822.000,0,58.37852,8.678885,46.0,0.0,2.16,5,269.67,1,0.245244,9.606541,0.003444,0.106899,0.043084,0.001153,-0.002705,-0.001794,0.001383,0.000008,31.000001
439,190526,185841.000,0,58.37855,8.678866,40.5,0.0,2.16,5,177.45,1,0.227679,9.578157,0.001784,0.136765,0.058519,0.000142,0.001740,0.000365,0.002035,0.000012,34.000001
446,190526,185842.000,0,58.37855,8.678866,40.5,0.0,2.16,5,177.45,1,0.235212,9.590353,0.001104,0.035675,0.060457,-0.000547,0.000632,0.000721,0.002140,0.000013,28.000000
454,190526,185843.000,0,58.37855,8.678866,40.5,0.0,2.16,5,177.45,1,0.242239,9.587906,0.002291,0.043751,0.040991,0.000970,-0.001802,-0.001029,0.001345,0.000007,25.000000
461,190526,185902.000,0,58.37852,8.678872,40.9,1.8,2.17,5,165.38,1,0.235477,9.580487,0.002056,0.041026,0.044169,-0.000401,0.001855,-0.000791,0.001382,0.000009,25.000000
469,190526,185903.000,0,58.37852,8.678868,40.9,1.73,2.17,5,168.94,1,0.235555,9.572267,0.002060,0.060277,0.050350,-0.000080,-0.000721,0.001927,0.001250,0.000007,28.000000
483,190526,185923.000,0,58.37859,8.678861,40.4,1.51,2.17,5,161.78,1,0.225436,9.561434,0.001372,0.068687,0.052947,-0.000130,0.001168,0.000709,0.001414,0.000010,29.000001
490,190526,185924.000,0,58.3786,8.678862,40.5,1.45,2.17,5,341.28,1,0.197265,9.546013,0.004490,0.063399,0.042408,0.002247,-0.003478,0.001737,0.001178,0.000008,23.000000
498,190526,185925.000,0,58.3786,8.678866,40.4,0.0,2.17,5,125.61,1,0.203026,9.526514,0.002011,0.129409,0.044522,0.001505,-0.001010,0.000872,0.001547,0.000010,21.000001
505,190526,185944.000,0,58.37856,8.678883,40.4,1.56,2.17,5,125.61,1,0.197480,9.532982,0.001104,0.111033,0.050236,-0.001032,0.000311,-0.000241,0.001650,0.000010,14.000000
513,190526,185945.000,0,58.37856,8.678883,40.3,1.6,2.18,5,194.3,1,0.196413,9.552627,0.001119,0.118974,0.045734,-0.000064,0.001059,0.000356,0.001261,0.000007,16.000000
520,190526,185946.000,0,58.37856,8.678883,40.4,1.69,2.17,5,203.73,1,0.185622,9.546080,0.001828,0.075633,0.051774,0.000946,0.000998,0.001204,0.001434,0.000009,17.000000
528,190526,190005.000,0,58.37854,8.678897,40.7,1.69,2.18,5,203.73,1,0.205610,9.555942,0.001372,0.054229,0.047388,-0.000628,-0.000689,0.001007,0.001497,0.000009,27.000000
536,190526,190006.000,0,58.37854,8.678897,40.7,0.0,2.18,5,129.78,1,0.200123,9.558346,0.002772,0.060373,0.044684,0.000858,0.002585,-0.000517,0.001408,0.000009,25.000000
543,190526,190025.000,0,58.37858,8.678879,39.6,0.0,2.18,5,190.21,1,0.207710,9.560559,0.002278,0.054594,0.055815,-0.000631,-0.002186,-0.000128,0.001604,0.000010,30.000000
551,190526,190026.000,0,58.37858,8.678879,39.6,0.0,2.18,5,190.21,1,0.203439,9.562360,0.002707,0.017635,0.056747,0.000027,0.002646,0.000570,0.001519,0.000009,28.000000
565,190526,190045.000,0,58.37859,8.678866,38.1,0.0,2.19,5,169.87,1,0.233995,9.564915,0.002009,0.043208,0.038652,0.000755,0.000893,0.001634,0.000939,0.000007,29.000001
578,190526,190046.000,0,58.37859,8.678866,38.1,0.0,2.19,5,169.87,1,0.246812,9.555666,0.003200,0.061490,0.039548,0.002219,0.002138,0.000863,0.001185,0.000007,23.000000
592,190526,190105.000,0,58.37862,8.678906,35.9,1.35,2.19,5,64.15,1,0.225941,9.564046,0.003231,0.077966,0.043762,-0.001914,0.002267,-0.001281,0.001204,0.000007,18.000001
601,190526,190106.000,0,58.37861,8.678908,35.7,0.0,2.19,5,64.15,1,0.209808,9.563936,0.003784,0.061870,0.044555,0.001172,-0.003563,-0.000502,0.001207,0.000007,22.000000
608,190526,190124.000,0,58.37853,8.678883,34.6,1.49,2.2,5,64.15,1,0.200256,9.571869,0.000756,0.019706,0.042745,-0.000733,-0.000103,-0.000154,0.001051,0.000006,24.000001
616,190526,190125.000,0,58.37852,8.678887,34.5,1.57,2.2,5,156.77,1,0.192087,9.566822,0.001540,0.053699,0.044133,0.001107,-0.000577,0.000902,0.001067,0.000005,22.000000
630,190526,190144.000,0,58.37856,8.678897,35.3,1.53,2.2,5,216.47,1,0.178942,9.559866,0.004182,0.116380,0.050543,0.001903,-0.003641,-0.000781,0.001137,0.000008,26.000001
637,190526,190145.000,0,58.37856,8.678895,35.5,0.0,2.2,5,242.32,1,0.171353,9.562407,0.002669,0.114640,0.041356,0.001206,-0.002289,-0.000656,0.001147,0.000007,24.000001
645,190526,190203.000,0,58.37856,8.678911,35.5,0.0,2.21,5,242.44,1,0.171242,9.555590,0.002238,0.026035,0.042308,-0.000034,0.002228,0.000211,0.001078,0.000006,20.000000
659,190526,190222.000,0,58.3785,8.6789,36.1,2.18,2.21,5,242.44,1,0.149157,9.539816,0.002599,0.070289,0.043605,-0.000555,-0.001780,-0.001811,0.001296,0.000006,26.000001
667,190526,190223.000,0,58.3785,8.678897,36.1,2.09,2.21,5,274.77,1,0.148547,9.536166,0.001599,0.068674,0.041393,-0.000976,0.001155,0.000520,0.001148,0.000006,26.000001
681,190526,190242.000,0,58.37851,8.678872,35.1,2.03,2.22,5,229.92,1,0.188477,9.538778,0.002920,0.040885,0.042565,-0.001411,0.002541,0.000276,0.001178,0.000009,21.000001
688,190526,190243.000,0,58.37851,8.678872,35.1,0.0,2.22,5,229.92,1,0.196281,9.535078,0.003200,0.047075,0.043170,0.001015,0.002522,0.001687,0.001246,0.000007,23.000000
696,190526,190244.000,0,58.37852,8.678869,35.1,1.42,2.22,5,18.25,1,0.205341,9.527979,0.002852,0.099892,0.043256,0.001086,-0.002633,-0.000147,0.001190,0.000007,23.000000
703,190526,190302.000,0,58.37858,8.678851,36.0,1.42,2.22,5,18.25,1,0.209228,9.529524,0.004442,0.133038,0.048828,0.000298,0.003392,0.002852,0.001348,0.000009,26.000001
711,190526,190303.000,0,58.37859,8.678855,35.9,1.58,2.22,5,356.7,1,0.200023,9.530050,0.002261,0.048694,0.047787,0.000946,0.001849,0.000892,0.001425,0.000009,22.000000
725,190526,190322.000,0,58.37858,8.678864,33.9,0.0,2.23,5,356.7,1,0.179673,9.539698,0.006349,0.136513,0.048974,-0.000238,-0.005968,-0.002152,0.001297,0.000007,24.000001
732,190526,190323.000,0,58.37858,8.678864,33.9,0.0,2.23,5,151.87,1,0.161955,9.553148,0.006332,0.066645,0.104561,-0.001860,0.006050,0.000161,0.004214,0.000027,20.000000
740,190526,190341.000,0,58.3785,8.678857,29.3,1.55,2.23,5,151.87,1,0.175170,9.549301,0.001119,0.040121,0.103565,-0.000606,0.000939,0.000044,0.004203,0.000027,19.000000
747,190526,190342.000,0,58.37851,8.678855,28.8,1.53,2.23,5,231.08,1,0.186128,9.547766,0.002995,0.087538,0.040504,0.002738,-0.001205,0.000150,0.001246,0.000006,21.000001
755,190526,190343.000,0,58.37851,8.678853,28.8,1.52,2.23,5,198.44,1,0.170382,9.537417,0.003144,0.075021,0.040272,0.000608,-0.002882,-0.001100,0.001098,0.000006,19.000000
762,190526,190401.000,0,58.37855,8.678887,27.9,1.13,2.24,5,345.6,1,0.179211,9.533950,0.003042,0.092552,0.044487,-0.001296,0.002582,-0.000952,0.001176,0.000006,28.000000
770,190526,190402.000,0,58.37854,8.67888,27.9,0.0,2.24,5,59.24,1,0.189405,9.540169,0.002381,0.066887,0.046872,0.001805,0.001423,0.000623,0.001220,0.000006,22.000000
778,190526,190420.000,0,58.37856,8.678877,26.1,0.0,2.24,5,59.24,1,0.186306,9.543426,0.001402,0.081408,0.035055,0.001077,-0.000841,0.000309,0.000936,0.000005,24.000001
785,190526,190421.000,0,58.37856,8.678877,26.1,0.0,2.24,5,253.38,1,0.170628,9.537051,0.003440,0.123667,0.045711,0.001001,-0.000683,-0.003220,0.001282,0.000006,32.000000
793,190526,190422.000,0,58.37856,8.678877,26.1,0.0,2.24,5,253.38,1,0.156068,9.530864,0.002700,0.025591,0.044570,0.000514,-0.002513,-0.000842,0.001260,0.000006,29.000001
813,190526,190441.000,0,58.37849,8.678921,23.3,0.0,2.25,5,327.48,1,0.163327,9.535958,0.003415,0.100077,0.092479,-0.001722,0.002855,-0.000737,0.003575,0.000021,27.000000
827,190526,190500.000,0,58.37852,8.678908,21.9,1.19,2.25,5,349.4,1,0.171265,9.527797,0.002572,0.050892,0.048671,0.001126,-0.001806,0.001443,0.001140,0.000007,20.000000
835,190526,190518.000,0,58.37854,8.678922,23.1,0.0,2.26,5,349.4,1,0.169915,9.526725,0.001926,0.056321,0.042718,-0.000858,0.000903,0.001468,0.001219,0.000006,17.000000
855,190526,190520.000,0,58.37853,8.678928,23.6,0.0,2.26,5,1.37,1,0.155435,9.530357,0.002523,0.055478,0.046297,-0.000616,-0.002019,0.001381,0.001409,0.000008,27.000000
863,190526,190537.000,0,58.37852,8.678904,24.3,0.0,2.26,5,188.05,1,0.154678,9.531579,0.000601,0.060936,0.039284,-0.000575,-0.000172,-0.000016,0.001050,0.000005,31.000001
870,190526,190538.000,0,58.37852,8.678904,24.3,0.0,2.26,5,188.05,1,0.157894,9.539419,0.000694,0.040709,0.049174,-0.000138,0.000384,-0.000561,0.001208,0.000007,27.000000
884,190526,190556.000,0,58.37852,8.678916,22.8,0.0,2.27,5,316.05,1,0.155563,9.540946,0.003364,0.130753,0.041567,0.001112,-0.003116,-0.000609,0.001364,0.000008,25.000000
898,190526,190614.000,0,58.37856,8.678908,22.3,0.0,2.27,5,190.79,1,0.152679,9.525557,0.000892,0.070477,0.048128,0.000885,0.000105,-0.000007,0.001189,0.000007,21.000001
906,190526,190615.000,0,58.37856,8.678908,22.3,0.0,2.27,5,18.44,1,0.156030,9.509889,0.002736,0.074038,0.056938,-0.000110,0.002733,0.000092,0.001734,0.000012,21.000001
913,190526,190632.000,0,58.37856,8.678868,21.4,0.0,2.28,5,18.44,1,0.151648,9.544808,0.004293,0.108871,0.060834,-0.001049,-0.004024,-0.001064,0.001740,0.000014,19.000000
940,190526,190651.000,0,58.37856,8.678866,21.4,0.0,2.28,5,347.71,1,0.168479,9.569817,0.006509,0.212770,0.050668,0.001013,-0.006390,-0.000713,0.001340,0.000007,21.000001
948,190526,190652.000,0,58.37856,8.678952,21.4,0.0,2.28,5,347.71,1,0.187686,9.567667,0.002873,0.072860,0.055926,-0.001010,-0.002570,-0.000792,0.001713,0.000011,24.000001
955,190526,190710.000,0,58.37856,8.67891,20.8,0.0,2.29,5,347.35,1,0.035419,9.411490,0.006491,0.091573,0.162674,-0.000969,0.006400,0.000478,0.014153,0.000275,29.000001
963,190526,190711.000,0,58.37856,8.67891,20.8,0.0,2.29,5,347.35,1,0.095663,9.459999,0.002302,0.081968,0.100234,0.001725,0.001454,0.000455,0.005271,0.000048,23.000000
977,190526,190729.000,0,58.37852,8.678934,21.1,0.0,2.3,5,216.87,1,0.142105,9.506142,0.003107,0.109335,0.051586,-0.002587,-0.000928,-0.001449,0.001379,0.000011,28.000000
984,190526,190730.000,0,58.37852,8.678934,21.1,0.0,2.3,5,216.87,1,0.156227,9.511716,0.005121,0.054461,0.050215,0.000541,-0.005084,0.000295,0.001445,0.000010,27.000000
992,190526,190747.000,0,58.37858,8.67896,19.3,0.0,2.3,5,331.83,1,0.124709,9.515778,0.001943,0.032355,0.036165,0.000511,-0.001117,-0.001506,0.001306,0.000009,26.000001
1012,190526,190805.000,0,58.37852,8.678928,20.6,1.8,2.31,5,172.04,1,0.143343,9.522264,0.003308,0.036261,0.043338,0.002335,0.001360,0.001908,0.001106,0.000007,29.000001
1026,190526,190822.000,0,58.37864,8.678931,20.3,1.77,2.31,5,310.79,1,0.139242,9.535196,0.004421,0.057764,0.101807,0.000974,-0.003818,0.002006,0.003806,0.000025,24.000001
1033,190526,190823.000,0,58.37864,8.678928,20.2,1.84,2.31,5,321.71,1,0.144027,9.533480,0.002638,0.091089,0.041042,-0.000906,-0.000837,-0.002332,0.001147,0.000008,24.000001
1047,190526,190840.000,0,58.37858,8.6789,20.4,1.9,2.32,5,5.57,1,0.151364,9.535650,0.004368,0.010873,0.044125,-0.000328,-0.003650,-0.002376,0.001221,0.000009,25.000000
1061,190526,190857.000,0,58.37852,8.678924,23.2,0.0,2.32,5,318.83,1,0.167359,9.529178,0.001253,0.093323,0.046456,0.000306,-0.000880,-0.000838,0.001119,0.000008,25.000000
1069,190526,190858.000,0,58.37852,8.678924,23.2,0.0,2.32,5,318.83,1,0.152958,9.527644,0.003395,0.130499,0.053413,0.001140,-0.002705,-0.001705,0.001418,0.000010,23.000000
1089,190526,190931.000,0,58.3786,8.678921,23.8,1.65,2.33,5,6.34,1,0.151813,9.504045,0.002464,0.069612,0.048924,-0.000094,-0.002446,-0.000286,0.001095,0.000008,31.000001
1097,190526,190932.000,0,58.37859,8.678925,23.8,0.0,2.33,5,141.55,1,-0.269365,9.234632,0.049437,0.169575,0.124413,0.025679,-0.042160,-0.002667,0.015491,0.000355,28.000000
1111,190526,190949.000,0,58.37855,8.678931,24.2,1.63,2.34,5,141.55,1,-0.093578,9.285970,0.004202,0.032453,0.043736,-0.002411,0.003015,0.001660,0.003067,0.000084,28.000000
1131,190526,191007.000,0,58.37845,8.67895,25.2,1.88,2.84,4,184.44,1,0.069999,9.390159,0.002587,0.252636,0.055774,-0.002489,0.000675,0.000211,0.001277,0.000010,18.000001
1151,190526,191025.000,0,58.37844,8.678921,25.1,0.0,2.86,4,220.99,1,0.102850,9.413434,0.000997,0.083194,0.042680,-0.000616,-0.000747,0.000237,0.001264,0.000007,27.000000
1165,190526,191042.000,0,58.37848,8.678895,23.8,2.01,2.36,5,187.82,1,0.134348,9.425593,0.002125,0.063428,0.044578,0.000260,-0.001899,-0.000918,0.001236,0.000010,21.000001
1192,190526,191100.000,0,58.37849,8.678928,22.1,0.0,2.36,5,101.57,1,0.122907,9.427127,0.001119,0.058124,0.054426,0.000728,-0.000849,0.000019,0.001675,0.000012,21.000001
1206,190526,191117.000,0,58.37859,8.678888,22.5,0.0,2.37,5,134.17,1,0.159599,9.413870,0.003424,0.036277,0.039544,-0.001132,-0.002951,0.001316,0.001365,0.000007,28.000000
1220,190526,191134.000,0,58.3786,8.678888,22.6,0.0,2.38,5,353.82,1,0.152786,9.427230,0.001024,0.098452,0.045457,-0.000133,-0.000999,-0.000181,0.001356,0.000009,28.000000
1234,190526,191151.000,0,58.37852,8.678897,22.3,1.27,2.38,5,337.76,1,0.155780,9.437053,0.003246,0.046206,0.042373,-0.001224,0.002976,0.000419,0.001183,0.000008,29.000001
1248,190526,191208.000,0,58.37854,8.678905,20.7,0.0,2.39,5,78.38,1,0.142175,9.433471,0.003813,0.050298,0.048725,-0.001226,0.003581,-0.000460,0.001594,0.000010,19.000000
1262,190526,191225.000,0,58.37856,8.678908,21.0,0.0,2.39,5,78.38,1,0.144829,9.426578,0.003548,0.166086,0.048861,-0.000267,-0.003427,0.000879,0.001514,0.000011,25.000000
1276,190526,191226.000,0,58.37856,8.678908,21.0,0.0,2.39,5,177.48,1,0.117886,9.427657,0.001311,0.060569,0.056719,-0.001250,-0.000396,0.000024,0.001624,0.000010,31.000001
1284,190526,191227.000,0,58.37856,8.678908,21.0,1.40752,2.39,5,177.63,1,-1.837363,9.090365,0.300031,2.959819,2.579735,-0.086992,-0.134106,-0.253902,0.150382,0.050953,22.000000
1292,190526,191243.000,0,58.37853,8.678913,21.3,1.41,2.4,5,177.63,1,-3.307652,4.677505,0.142424,4.062044,2.271332,0.135978,-0.020813,0.036899,0.077710,0.062323,14.000000
1300,190526,191244.000,0,58.37853,8.678922,15.0,1.65,4.0,5,125.76,1,-1.620977,2.559429,0.191824,3.861539,1.987253,0.108578,0.049468,0.150200,0.104134,0.059162,14.000000
1307,190526,191300.000,0,58.37831,8.679328,21.2,8.39,2.41,5,125.76,1,-2.632508,3.492336,0.200959,4.418498,1.883851,-0.161627,-0.106360,0.054301,0.095501,0.062616,12.000000
1328,190526,191318.000,0,58.37853,8.679035,23.7,4.34,2.41,5,262.8,1,-5.844150,0.884110,0.249382,7.474278,2.361998,-0.026331,-0.122291,-0.215738,0.087814,0.066265,14.000000
1342,190526,191336.000,0,58.37871,8.679029,27.6,7.01,2.66,4,24.33,1,-7.698794,0.624793,0.084083,2.987265,5.478722,-0.073182,-0.011227,-0.039853,0.196674,0.153803,18.000001
1349,190526,191337.000,0,58.37876,8.679045,27.8,8.4,2.67,4,16.17,1,-7.750245,1.421486,0.249354,1.076738,3.795657,-0.044563,-0.069451,-0.235304,0.111384,0.057009,15.000000
1363,190526,191355.000,0,58.37913,8.67911,29.3,4.08,2.47,4,11.45,1,-6.498582,3.316162,0.077701,2.944858,2.000741,-0.011240,0.004078,0.076776,0.103838,0.056851,12.000000
1371,190526,191412.000,0,58.37932,8.679152,29.1,4.46,2.43,5,304.17,1,-5.431763,4.181506,0.163945,2.822166,1.540336,-0.015559,-0.010519,-0.162865,0.066664,0.033294,12.000000
1385,190526,191413.000,0,58.37932,8.679138,29.1,4.40776,2.43,5,313.65,1,-3.223816,5.822209,0.165503,2.741621,2.464645,0.076450,-0.058131,0.134787,0.080158,0.055179,16.000000
1392,190526,191414.000,0,58.37932,8.679122,29.1,4.72,2.43,5,297.27,1,-2.496560,5.486777,0.247349,5.823833,2.375100,0.006423,0.013988,0.246869,0.078922,0.053591,14.000000
1400,190526,191430.000,0,58.37936,8.678767,31.1,5.18,2.44,5,291.49,1,-2.831546,5.249213,0.291171,1.524343,2.222720,0.027800,-0.083645,-0.277508,0.070025,0.049604,14.000000
1414,190526,191447.000,0,58.37939,8.678349,30.5,4.89,2.45,5,286.05,1,-3.537047,6.503070,0.116129,3.111993,1.990045,-0.031307,0.081419,-0.076660,0.061865,0.036271,16.000000
1421,190526,191503.000,0,58.37942,8.677943,32.8,5.9,2.45,5,286.05,1,-4.404248,5.357363,0.325420,2.315057,1.975316,0.095398,0.045310,0.307805,0.073315,0.042903,15.000000
1441,190526,191505.000,0,58.37941,8.677897,33.0,5.34,2.45,5,276.79,1,-5.117044,5.634696,0.200575,2.400489,1.689167,-0.144038,-0.007672,-0.139372,0.070585,0.034690,14.000000
1449,190526,191521.000,0,58.37945,8.677538,32.9,4.78,1.5,6,289.5,1,-5.465825,5.197161,0.257835,2.887223,1.807854,0.060858,-0.055331,0.244363,0.075956,0.040306,16.000000
1463,190526,191538.000,0,58.37945,8.677092,32.3,5.78,1.5,6,273.36,1,-4.169168,5.317729,0.183706,4.365632,1.980197,0.001576,-0.062364,-0.172789,0.079488,0.044059,11.000000
1477,190526,191555.000,0,58.37948,8.676825,29.1,4.41,1.5,6,291.9,1,-2.477552,6.611049,0.166327,3.795542,1.939841,0.055045,-0.037414,0.152430,0.084810,0.041387,11.000000
1491,190526,191556.000,0,58.37949,8.676804,29.2,4.43,1.5,6,291.9,1,-2.306209,5.738618,0.176395,1.448277,2.067860,0.021246,0.054148,0.166529,0.078996,0.052506,12.000000
1498,190526,191612.000,0,58.37957,8.676454,33.5,4.36,1.5,6,318.49,1,-1.519976,5.799030,0.155704,4.812422,2.036031,-0.029247,0.083560,-0.128087,0.098297,0.053857,14.000000
1506,190526,191628.000,0,58.37976,8.676315,32.1,5.53,1.5,6,318.49,1,-3.509558,3.900912,0.326642,3.849537,2.503606,0.023413,-0.083221,0.314994,0.104884,0.075128,14.000000
1526,190526,191646.000,0,58.37995,8.676214,36.1,3.78,1.62,5,346.15,1,-6.213416,0.647386,0.228671,2.946358,1.874795,0.189633,0.034847,0.122944,0.092580,0.056216,13.000001
1534,190526,191647.000,0,58.37996,8.676213,36.6,3.87,1.62,5,359.96,1,-6.766037,1.735129,0.267574,4.464046,1.868996,-0.184559,-0.070555,0.180432,0.078969,0.042308,13.000001
1548,190526,191704.000,0,58.38022,8.67622,44.6,5.32,1.27,7,359.96,1,-6.101779,0.905282,0.206127,2.687170,1.938664,0.125913,0.022296,0.161671,0.079278,0.051217,13.000001
1555,190526,191705.000,0,58.38022,8.676225,45.0,4.97,1.27,7,51.6,1,-7.124691,1.624830,0.267253,2.721673,1.715142,0.087978,-0.059467,-0.245250,0.078553,0.041849,11.000000
1569,190526,191723.000,0,58.38039,8.676477,49.6,3.16,3.35,4,45.05,1,-5.074924,4.459457,0.156083,4.488196,1.417183,0.010205,-0.037173,0.151248,0.073824,0.033440,16.000000
