Time, UTC Date, UTC Time, Label, Latitude, Longitude, Altitude, Speed, HDOP, Satelites, Course, Fix, Roll Degrees, Pitch Degrees, Dynamic Magnitude, Jerk, Jerk Std, Acceleration X, Acceleration Y, Acceleration Z, Standard Deviation, Energy, Zero Crossings
110,270426,161120.000,0,58.14428,8.002587,-9.0,0.95,2.37,4,2.49,1,-1.310026,-0.672434,0.002720,0.160291,0.058841,-0.001585,0.002202,0.000200,0.001531,0.000012,17.000000
118,270426,161121.000,0,58.14428,8.002582,-9.9,1.25,2.37,4,354.31,1,-1.288513,-0.663702,0.001565,0.050234,0.051670,-0.000351,0.000274,0.001500,0.001572,0.000010,22.000000
126,270426,161142.000,0,58.14437,8.002527,-2.2,0.0,2.36,4,354.31,1,-1.284513,-0.663383,0.002743,0.024520,0.040485,-0.000544,0.001582,-0.002174,0.001174,0.000007,24.000001
133,270426,161143.000,0,58.14437,8.002527,-2.2,0.0,2.36,4,304.01,1,-1.302790,-0.662852,0.002389,0.043276,0.036059,0.000807,0.001655,-0.001522,0.001216,0.000008,16.000000
141,270426,161144.000,0,58.14437,8.002527,-2.2,0.0,2.36,4,304.01,1,-1.311842,-0.671162,0.002554,0.034198,0.035188,-0.000047,-0.000064,-0.002552,0.001157,0.000009,10.000000
149,270426,161145.000,0,58.14437,8.002527,-2.2,0.0,2.36,4,304.01,1,-1.301432,-0.676137,0.003791,0.064851,0.050758,-0.001431,0.002225,0.002716,0.001470,0.000013,10.000000
157,270426,161206.000,0,58.1444,8.002537,0.3,0.0,2.35,4,13.68,1,-1.312565,-0.692018,0.001577,0.076980,0.050921,0.001273,-0.000120,-0.000924,0.001594,0.000013,16.000000
165,270426,161207.000,0,58.1444,8.002537,0.3,0.0,2.35,4,13.68,1,-1.309539,-0.683296,0.002626,0.039025,0.032580,-0.001382,-0.002128,-0.000676,0.001145,0.000008,17.000000
172,270426,161229.000,0,58.14439,8.002517,1.6,1.11,2.34,4,13.68,1,-1.311549,-0.687444,0.003875,0.053903,0.052944,0.000767,-0.003117,-0.002170,0.001632,0.000012,15.000000
180,270426,161230.000,0,58.14439,8.002512,1.5,1.25,2.33,4,359.06,1,-1.326476,-0.666572,0.001596,0.040888,0.059428,0.000382,0.001444,-0.000562,0.001828,0.000014,14.000000
188,270426,161231.000,0,58.14439,8.002506,1.4,0.0,2.34,4,359.06,1,-1.299353,-0.656640,0.001624,0.060661,0.042945,-0.000324,0.001021,0.001221,0.001495,0.000010,12.000000
196,270426,161252.000,0,58.14439,8.002537,-4.4,1.57,2.33,4,359.06,1,-1.307550,-0.663963,0.004593,0.126899,0.036550,0.000490,-0.002675,0.003702,0.001401,0.000010,10.000000
203,270426,161253.000,0,58.14437,8.002545,-4.6,1.62,2.32,4,359.06,1,-1.267655,-0.670845,0.001238,0.105983,0.040691,0.000523,-0.001109,0.000176,0.001476,0.000012,10.000000
211,270426,161254.000,0,58.14437,8.002548,-4.8,1.54,2.32,4,42.77,1,-1.272051,-0.664641,0.002114,0.098735,0.059732,0.000250,0.001683,0.001256,0.001772,0.000014,20.000000
218,270426,161255.000,0,58.14437,8.002551,-4.9,0.0,2.32,4,83.5,1,-1.292738,-0.665806,0.002466,0.060609,0.059469,-0.000209,-0.000128,-0.002454,0.001689,0.000012,18.000001
226,270426,161316.000,0,58.14434,8.00253,-4.6,0.0,2.31,4,83.5,1,-1.312695,-0.661588,0.002451,0.025994,0.038619,-0.002007,0.000540,0.001299,0.001073,0.000010,8.000000
234,270426,161317.000,0,58.14434,8.00253,-4.6,0.0,2.31,4,334.82,1,-1.282411,-0.672729,0.004926,0.156366,0.041756,0.004649,-0.001601,-0.000297,0.001159,0.000011,12.000000
241,270426,161318.000,0,58.14434,8.00253,-4.6,0.0,2.31,4,334.82,1,-1.261283,-0.677524,0.003171,0.049639,0.052880,0.001051,-0.000549,-0.002941,0.001532,0.000012,16.000000
249,270426,161340.000,0,58.14439,8.002485,-3.1,1.79,2.3,4,334.82,1,-1.239039,-0.672222,0.004553,0.186226,0.054644,-0.000142,-0.004114,0.001948,0.001574,0.000012,16.000000
257,270426,161341.000,0,58.14439,8.002491,-3.2,1.75,2.3,4,8.73,1,-1.268305,-0.676106,0.001763,0.076037,0.055466,-0.000164,0.000340,-0.001722,0.001757,0.000011,18.000001
264,270426,161342.000,0,58.14439,8.002506,-3.0,1.8,2.3,4,45.94,1,-1.286207,-0.672063,0.002004,0.062729,0.054382,0.000000,0.001560,0.001257,0.001695,0.000012,18.000001
278,270426,161404.000,0,58.1444,8.002509,-6.0,2.02,2.29,4,196.25,1,-1.247891,-0.677335,0.002423,0.048564,0.055204,0.000626,-0.001399,0.001877,0.001515,0.000011,23.000000
286,270426,161405.000,0,58.1444,8.002517,-6.1,2.03,2.29,4,57.82,1,-1.262703,-0.681652,0.004394,0.112293,0.057588,0.002180,-0.003296,-0.001922,0.001651,0.000012,22.000000
293,270426,161426.000,0,58.1444,8.002505,-9.2,1.63,2.28,4,78.41001,1,-1.228984,-0.670706,0.000848,0.067019,0.039313,-0.000831,-0.000168,-0.000023,0.001258,0.000008,18.000001
301,270426,161427.000,0,58.1444,8.002506,-9.3,1.46,2.28,4,26.06,1,-1.249854,-0.661723,0.000934,0.033819,0.040432,0.000168,-0.000638,0.000661,0.001317,0.000008,16.000000
308,270426,161428.000,0,58.1444,8.002514,-9.5,1.55,2.28,4,63.54,1,-1.235950,-0.653680,0.004435,0.077688,0.042689,-0.000814,0.003683,0.002333,0.001285,0.000008,20.000000
322,270426,161449.000,0,58.14436,8.002505,-11.0,1.96,2.27,4,45.0,1,-1.222862,-0.650201,0.002742,0.067175,0.039147,0.002220,0.000808,-0.001392,0.001109,0.000008,16.000000
330,270426,161450.000,0,58.14437,8.002501,-11.0,2.2,2.27,4,45.0,1,-1.219343,-0.647026,0.003733,0.053484,0.033142,0.001934,-0.000398,-0.003169,0.001045,0.000007,17.000000
338,270426,161511.000,0,58.14435,8.002512,-14.9,2.2,2.26,4,45.0,1,-1.239161,-0.645790,0.007636,0.156844,0.063280,-0.005903,0.004429,0.001962,0.002425,0.000018,13.000001
345,270426,161512.000,0,58.14435,8.002514,-15.0,0.0,2.25,4,145.41,1,-1.243710,-0.645110,0.003381,0.041567,0.064507,0.000108,0.003375,0.000171,0.002469,0.000018,13.000001
353,270426,161513.000,0,58.14435,8.002515,-15.0,0.0,2.25,4,52.76,1,-1.229244,-0.638473,0.008315,0.055242,0.061494,-0.005889,0.005827,0.000716,0.001765,0.000010,17.000000
361,270426,161534.000,0,58.14436,8.002503,-10.6,1.53,2.25,4,52.76,1,-1.260225,-0.615300,0.003381,0.187401,0.256623,-0.001834,0.001504,0.002410,0.008447,0.000106,19.000000
369,270426,161535.000,0,58.14437,8.002505,-10.4,1.59,2.25,4,339.17,1,-1.239493,-0.614272,0.005457,0.076743,0.261048,-0.005454,0.000118,-0.000135,0.008474,0.000114,17.000000
377,270426,161536.000,0,58.14437,8.002501,-10.0,1.55,2.25,4,333.37,1,-1.219301,-0.622833,0.004161,0.099338,0.085676,-0.001985,0.001317,0.003412,0.002663,0.000018,15.000000
391,270426,161557.000,0,58.14441,8.002465,-5.1,0.0,2.23,4,67.37,1,-1.255548,-0.626383,0.002684,0.067610,0.059270,0.000570,-0.002431,-0.000984,0.001585,0.000013,21.000001
398,270426,161558.000,0,58.14441,8.00246,-5.1,0.0,2.23,4,290.47,1,-1.260596,-0.619013,0.001885,0.047517,0.060842,0.000454,-0.001733,-0.000587,0.001722,0.000013,23.000000
406,270426,161559.000,0,58.1444,8.002461,-5.1,1.63,2.23,4,151.53,1,-1.225228,-0.623417,0.002439,0.031345,0.045138,0.000222,0.001504,0.001907,0.001450,0.000011,18.000001
426,270426,161641.000,0,58.14445,8.002524,-6.2,0.0,2.22,4,28.7,1,-1.188550,-0.643682,0.001548,0.080024,0.035817,-0.000017,0.001002,0.001180,0.000967,0.000007,18.000001
446,270426,161702.000,0,58.14442,8.002559,-9.0,0.0,2.21,4,28.7,1,-1.183878,-0.639961,0.003479,0.077527,0.026655,0.000760,-0.001730,0.002921,0.000979,0.000005,29.000001
454,270426,161703.000,0,58.14442,8.002562,-8.9,1.67,2.2,4,150.03,1,-1.187495,-0.645221,0.001943,0.041166,0.032614,0.000359,0.000671,-0.001788,0.000943,0.000006,25.000000
461,270426,161704.000,0,58.14441,8.002562,-8.8,1.47,2.2,4,328.99,1,-1.184843,-0.641706,0.000975,0.036002,0.035122,-0.000571,0.000652,-0.000445,0.000971,0.000006,19.000000
475,270426,161723.000,0,58.1444,8.002543,-8.9,1.81,2.2,4,356.11,1,-1.220134,-0.645052,0.001112,0.020039,0.232327,-0.000152,0.000677,0.000869,0.008739,0.000110,15.000000
483,270426,161724.000,0,58.14441,8.002538,-8.9,2.09,2.19,4,329.59,1,-1.233525,-0.648157,0.001137,0.083213,0.036987,-0.001050,0.000402,0.000171,0.001578,0.000010,16.000000
491,270426,161742.000,0,58.1444,8.002538,-9.2,2.09,2.18,4,329.59,1,-1.247007,-0.657131,0.001168,0.038838,0.038863,-0.000599,-0.000701,0.000717,0.001325,0.000007,20.000000
498,270426,161743.000,0,58.14439,8.00255,-9.4,0.79,4.52,3,317.06,1,-5.894878,-6.609524,0.206812,6.616594,1.922916,-0.112000,-0.161764,0.063714,0.204576,0.066915,19.000000
506,270426,161801.000,0,58.14442,8.002427,-11.3,0.79,2.18,4,317.06,1,-7.801644,-2.153174,0.215726,0.717927,2.142280,-0.179727,-0.032262,-0.114870,0.144673,0.103953,17.000000
514,270426,161802.000,0,58.14442,8.002427,-11.3,3.19,2.18,4,6.56,1,-7.163489,2.331753,0.177821,2.478283,1.866644,-0.092450,0.044232,0.145317,0.071012,0.063148,12.000000
528,270426,161821.000,0,58.1443,8.002255,-4.1,10.63,2.17,4,320.64,1,-5.955215,3.318156,0.215995,8.460022,2.041961,0.040744,0.149126,-0.150848,0.074223,0.043481,15.000000
548,270426,161841.000,0,58.14412,8.001916,11.9,9.65,2.16,4,156.7,1,-6.570620,7.352008,0.142754,2.853606,1.999017,-0.052723,0.110344,-0.073642,0.051117,0.038766,16.000000
568,270426,161843.000,0,58.14413,8.001892,13.5,4.4448,2.16,4,230.06,1,-6.571312,8.898617,0.204925,1.111398,1.802200,0.011042,0.090181,0.183684,0.062288,0.043333,15.000000
576,270426,161901.000,0,58.14408,8.001512,18.2,4.4448,1.58,5,230.06,1,-5.593363,8.368917,0.202648,3.559179,1.741057,0.146314,0.056525,0.128310,0.072066,0.049380,13.000001
583,270426,161902.000,0,58.14408,8.001493,18.5,4.42,1.58,5,230.06,1,-5.172493,7.638175,0.291637,3.715117,1.740534,0.185717,0.105194,0.198736,0.075576,0.045755,11.000000
591,270426,161920.000,0,58.14393,8.001117,18.1,3.97,1.57,5,250.1,1,-4.366504,7.552925,0.174749,1.496285,1.627855,0.001308,-0.023240,0.173192,0.074362,0.036755,11.000000
599,270426,161921.000,0,58.14392,8.0011,18.0,3.86,1.57,5,239.76,1,-3.719177,8.389492,0.076793,1.743393,1.717245,-0.031689,-0.056908,-0.040674,0.083367,0.039962,13.000001
612,270426,161939.000,0,58.1439,8.000768,25.4,5.95,1.95,5,240.64,1,-3.679188,12.104985,0.165031,1.074748,1.314586,-0.159322,-0.042859,0.003873,0.069708,0.037795,14.000000
621,270426,161957.000,0,58.14386,8.000627,26.3,3.9,1.48,6,264.84,1,-3.584647,14.602683,0.107038,0.686559,1.032127,-0.077396,0.015079,0.072386,0.075249,0.036377,12.000000
641,270426,161959.000,0,58.14386,8.000653,25.3,4.01,1.48,6,43.63,1,-2.078061,11.756462,0.037081,0.069987,0.102575,0.036865,0.003825,0.001161,0.017471,0.003953,0.000000
650,270426,162017.000,0,58.14386,8.000731,10.7,7.08,1.63,5,96.18,1,-1.984772,10.957650,0.029419,0.122053,0.104084,0.028722,-0.006025,-0.002056,0.010494,0.001594,0.000000
670,270426,162036.000,0,58.14382,8.000702,-1.8,5.8,1.48,6,77.86,1,-2.504859,9.304312,0.010186,0.052287,0.055487,0.009483,-0.003105,0.002048,0.005697,0.000357,0.000000
684,270426,162054.000,0,58.14376,8.000676,-8.6,3.25,1.62,5,77.86,1,-2.600574,8.949800,0.004483,0.080692,0.051090,0.003003,-0.003037,-0.001361,0.002391,0.000055,8.000000
691,270426,162055.000,0,58.14376,8.000685,-8.6,3.13,1.62,5,109.87,1,-2.304336,7.600171,0.019600,0.403709,0.100624,0.017945,0.006713,-0.004134,0.053404,0.003646,10.000000
705,270426,162113.000,0,58.14376,8.00064,-13.8,0.0,1.55,6,272.39,1,-1.695659,4.850602,0.013827,0.124866,0.490319,0.011630,-0.006194,0.004190,0.028160,0.003843,14.000000
713,270426,162114.000,0,58.14376,8.000635,-13.8,0.0,1.55,6,282.62,1,-1.855691,4.489588,0.011143,0.041122,0.480592,0.009514,-0.005391,0.002143,0.028528,0.001799,12.000000
727,270426,162132.000,0,58.14384,8.000643,-10.2,0.0,1.55,6,351.73,1,-2.002581,4.112519,0.006966,0.068575,0.040293,0.006008,-0.002518,0.002469,0.002584,0.000069,8.000000
734,270426,162150.000,0,58.1438,8.00068,-12.3,0.0,1.41,7,92.37,1,-2.051613,4.016715,0.003460,0.040684,0.038640,0.002096,-0.002300,-0.001514,0.001535,0.000030,20.000000
754,270426,162209.000,0,58.1438,8.000687,-12.5,0.0,1.54,6,78.88,1,-2.022856,3.701254,0.081180,2.093068,0.596227,0.045210,0.062028,0.026435,0.022468,0.000619,23.000000
775,270426,162228.000,0,58.14379,8.000712,-17.1,0.0,1.54,6,45.92,1,-2.032645,3.848936,0.003633,0.061156,0.046385,-0.003623,0.000246,0.000106,0.001316,0.000012,25.000000
790,270426,162246.000,0,58.14379,8.000712,-17.1,0.0,1.5,7,45.92,1,-0.793143,-2.281165,0.179475,0.123874,0.123546,0.178160,0.017530,-0.012772,0.070385,0.016693,14.000000
810,270426,162248.000,0,58.14379,8.000712,-17.1,0.0,1.5,7,196.47,1,-1.110734,-3.920103,0.130432,0.070405,0.139464,-0.129484,-0.014920,0.004889,0.043310,0.021776,4.000000
818,270426,162305.000,0,58.14384,8.00072,-15.7,0.0,1.5,7,196.47,1,-1.455201,-1.056498,0.082577,0.032389,0.061920,-0.081538,-0.010233,0.008103,0.036260,0.019384,0.000000
826,270426,162306.000,0,58.14384,8.00072,-15.7,0.0,2.04,6,159.91,1,-1.659708,0.703375,0.049484,0.046731,0.037256,-0.048682,-0.007201,0.005184,0.024177,0.007699,0.000000
834,270426,162323.000,0,58.14384,8.000697,-15.1,0.0,2.03,6,159.91,1,-1.809031,1.807638,0.029429,0.066936,0.032527,-0.028459,-0.006553,0.003639,0.014966,0.002826,0.000000
842,270426,162324.000,0,58.14384,8.000697,-15.1,0.0,2.03,6,159.91,1,-1.894342,2.444097,0.017267,0.053340,0.035502,-0.016298,-0.003657,0.004377,0.009253,0.001060,0.000000
857,270426,162341.000,0,58.1438,8.000666,-12.5,0.0,1.38,8,52.54,1,-1.974064,3.066896,0.009641,0.115000,0.037929,-0.006568,-0.006823,0.001804,0.003209,0.000160,10.000000
865,270426,162358.000,0,58.1438,8.000642,-10.1,0.0,1.82,7,302.31,1,-1.963436,3.214338,0.004782,0.085758,0.039101,-0.004314,-0.000289,-0.002044,0.002284,0.000064,20.000000
879,270426,162359.000,0,58.1438,8.000639,-10.1,0.0,1.82,7,306.37,1,-2.003384,3.376743,0.002230,0.050731,0.038295,-0.002211,-0.000250,-0.000156,0.001227,0.000015,30.000000
887,270426,162415.000,0,58.1438,8.00064,-9.8,0.0,1.37,8,293.8,1,-2.002065,3.408644,0.002599,0.053298,0.033733,-0.000804,0.000142,-0.002467,0.001042,0.000009,22.000000
900,270426,162431.000,0,58.1438,8.00064,-9.8,0.0,1.81,7,293.8,1,-2.045403,3.446869,0.002443,0.063972,0.045239,0.000298,0.002159,-0.001106,0.001202,0.000009,19.000000
916,270426,162432.000,0,58.1438,8.00064,-9.8,0.0,1.81,7,293.8,1,-1.986909,3.478202,0.001461,0.040797,0.127453,-0.000264,0.001205,0.000783,0.004538,0.000029,28.000000
924,270426,162447.000,0,58.1438,8.00064,-9.8,0.0,1.8,7,293.8,1,-1.984233,3.481737,0.004267,0.056709,0.127688,-0.000671,-0.004083,0.001042,0.004525,0.000029,33.000000
931,270426,162448.000,0,58.1438,8.00064,-9.0,0.0,1.8,7,293.8,1,-1.985862,3.480765,0.002950,0.058824,0.036734,0.000394,0.001503,0.002508,0.001134,0.000007,25.000000
940,270426,162503.000,0,58.14372,8.000637,-10.8,2.03,1.79,7,126.15,1,-2.002275,3.483595,0.003069,0.075035,0.047766,0.000794,-0.002512,-0.001574,0.001490,0.000009,18.000001
967,270426,162534.000,0,58.14379,8.000639,-12.6,0.0,1.35,8,310.09,1,-2.016958,3.500028,0.003057,0.079401,0.040858,0.000249,-0.003029,0.000328,0.001316,0.000008,18.000001
982,270426,162550.000,0,58.14384,8.000676,-11.4,1.76,1.48,7,31.51,1,-1.996855,3.487076,0.001906,0.117944,0.035812,0.001766,0.000062,0.000715,0.001082,0.000007,17.000000
997,270426,162606.000,0,58.14384,8.00071,-11.3,0.0,1.48,7,185.51,1,-2.003917,3.469574,0.002633,0.087859,0.035466,0.001277,-0.002171,-0.000766,0.000864,0.000006,24.000001
1012,270426,162622.000,0,58.14384,8.000712,-10.4,1.88,1.5,6,185.51,1,-2.011147,3.452077,0.003370,0.038701,0.038548,0.000359,0.003205,-0.000978,0.001251,0.000007,25.000000
1027,270426,162638.000,0,58.14384,8.00071,-10.4,0.0,1.47,7,42.19,1,-2.000969,3.444431,0.000840,0.062270,0.118978,-0.000799,-0.000106,0.000237,0.004272,0.000026,19.000000
1042,270426,162653.000,0,58.14384,8.00071,-10.4,0.0,1.47,7,42.19,1,-1.992390,3.436494,0.001303,0.054910,0.034614,0.000821,-0.000714,0.000718,0.001135,0.000007,18.000001
1056,270426,162708.000,0,58.14384,8.00071,-10.4,0.0,1.34,8,42.19,1,-1.985270,3.444288,0.003323,0.102202,0.035566,0.000715,-0.000978,-0.003094,0.001024,0.000007,26.000001
1072,270426,162723.000,0,58.14384,8.00071,-10.4,0.0,1.33,8,42.19,1,-1.984080,3.463178,0.003819,0.144040,0.047290,-0.003356,-0.001600,0.000875,0.001205,0.000008,25.000000
1120,270426,162808.000,0,58.1438,8.00068,-13.2,0.0,1.33,8,357.28,1,-1.948461,3.499036,0.001355,0.076113,0.047882,-0.000861,0.000787,-0.000690,0.001431,0.000007,28.000000
1135,270426,162823.000,0,58.14369,8.00058,-8.0,2.29,1.32,8,186.8,1,-1.961520,3.488087,0.000731,0.060455,0.039131,0.000550,-0.000441,-0.000194,0.001189,0.000006,25.000000
1143,270426,162837.000,0,58.14369,8.000601,-6.4,2.29,1.32,8,186.8,1,-1.974254,3.506513,0.002176,0.075308,0.064924,-0.001613,0.001098,-0.000963,0.002235,0.000012,23.000000
1157,270426,162852.000,0,58.14373,8.000653,-5.8,1.63,1.45,7,112.44,1,-1.977358,3.493032,0.003897,0.056790,0.033719,0.001460,0.000446,0.003586,0.000992,0.000005,17.000000
1172,270426,162907.000,0,58.14376,8.000671,-6.8,0.0,1.45,7,295.6,1,-1.978238,3.470805,0.000882,0.049037,0.038346,0.000490,0.000705,-0.000204,0.000940,0.000006,32.000000
1186,270426,162908.000,0,58.14376,8.000671,-6.8,0.0,1.45,7,195.14,1,-1.983515,3.487330,0.001188,0.069713,0.038700,0.000709,0.000826,0.000475,0.001311,0.000007,26.000001
1194,270426,162922.000,0,58.14392,8.000715,-7.3,0.0,1.45,7,195.14,1,-1.997146,3.487743,0.002229,0.075732,0.037363,-0.002038,0.000777,-0.000457,0.001034,0.000007,27.000000
1209,270426,162937.000,0,58.14386,8.000629,-7.5,1.62,1.45,7,206.25,1,-1.996891,3.485228,0.004039,0.052040,0.038807,-0.001794,0.000414,-0.003594,0.001075,0.000006,22.000000
1224,270426,162952.000,0,58.14382,8.000619,-7.3,0.0,1.31,8,172.61,1,-2.014917,3.494805,0.003636,0.024026,0.038921,-0.000047,-0.001107,-0.003463,0.001492,0.000008,24.000001
1233,270426,163006.000,0,58.14381,8.000657,-7.4,0.0,1.3,8,353.85,1,-2.001213,3.480511,0.001980,0.044009,0.037331,0.001221,0.001026,0.001172,0.001257,0.000008,22.000000
1247,270426,163007.000,0,58.1438,8.000642,-7.4,0.98,1.3,8,255.16,1,-1.975250,3.457681,0.002403,0.076024,0.044659,-0.000680,0.002260,0.000455,0.001135,0.000007,24.000001
1255,270426,163021.000,0,58.14382,8.000675,-7.5,1.53,1.3,8,319.32,1,-1.975104,3.447780,0.002771,0.116868,0.048561,0.000073,0.002299,0.001545,0.001261,0.000008,28.000000
1295,270426,163105.000,0,58.14373,8.000652,-11.5,1.21,1.29,8,355.45,1,-1.962496,3.461416,0.002142,0.067005,0.044665,-0.001368,-0.001639,-0.000173,0.001239,0.000008,28.000000
1304,270426,163119.000,0,58.14382,8.000676,-11.4,1.44,1.29,8,355.45,1,-1.986891,3.454864,0.002133,0.031639,0.049721,-0.000385,0.002084,-0.000239,0.001303,0.000008,27.000000
1318,270426,163134.000,0,58.14382,8.00068,-11.4,0.0,1.29,8,201.71,1,-1.977414,3.459989,0.002183,0.028305,0.036910,-0.001556,-0.001211,0.000937,0.001187,0.000007,22.000000
1340,270426,163149.000,0,58.14388,8.000698,-10.9,0.0,1.29,8,287.96,1,-1.985265,3.470104,0.001763,0.046836,0.046928,-0.001155,-0.000544,-0.001216,0.001504,0.000009,25.000000
1348,270426,163203.000,0,58.14388,8.000742,-10.8,1.44,1.28,8,287.96,1,-1.985105,3.468884,0.002620,0.057283,0.047014,0.001256,0.001893,-0.001306,0.001430,0.000009,20.000000
1355,270426,163204.000,0,58.14389,8.000745,-10.8,0.0,1.28,8,333.51,1,-1.981220,3.469963,0.002554,0.049215,0.046665,-0.000293,-0.002319,-0.001030,0.001215,0.000007,20.000000
1364,270426,163218.000,0,58.14389,8.000733,-11.0,0.0,1.28,8,174.05,1,-1.967317,3.467724,0.002561,0.039956,0.038174,0.000575,0.001310,-0.002124,0.001125,0.000006,19.000000
1384,270426,163233.000,0,58.14386,8.000721,-11.0,0.0,1.64,7,6.34,1,-1.957232,3.469279,0.003615,0.061007,0.038777,0.000504,-0.003127,-0.001741,0.001223,0.000007,30.000000
1392,270426,163247.000,0,58.14386,8.000678,-7.1,1.69,1.64,7,6.34,1,-1.962735,3.457866,0.004605,0.152615,0.042157,0.002890,-0.003558,0.000439,0.001233,0.000008,26.000001
1400,270426,163248.000,0,58.14386,8.000671,-6.9,1.5742,2.02,6,254.73,1,-1.976476,3.439754,0.002656,0.117505,0.037706,-0.000365,0.002100,-0.001584,0.000992,0.000007,22.000000
1408,270426,163302.000,0,58.1438,8.000658,-6.1,0.0,1.27,8,254.73,1,-1.989540,3.430468,0.001538,0.067543,0.041292,0.000551,-0.001399,0.000320,0.001067,0.000007,20.000000
1435,270426,163318.000,0,58.14378,8.000682,-7.7,0.0,1.63,7,316.0,1,-1.981081,3.470436,0.001560,0.029503,0.039712,-0.000334,0.001507,0.000227,0.001185,0.000006,20.000000
1442,270426,163332.000,0,58.14378,8.000682,-7.7,0.0,1.27,8,316.0,1,-1.972392,3.470902,0.002437,0.054235,0.051631,0.000423,0.001663,-0.001730,0.001396,0.000007,24.000001
1456,270426,163347.000,0,58.14381,8.000687,-10.7,0.0,1.26,8,316.0,1,-1.985697,3.485342,0.001723,0.020057,0.044978,0.000886,-0.001475,-0.000089,0.001229,0.000008,27.000000
1470,270426,163402.000,0,58.14371,8.000657,-11.2,1.95,2.39,5,177.65,1,-2.020159,3.505982,0.006621,0.257995,0.051544,-0.006344,0.000764,0.001736,0.001404,0.000009,24.000001
1484,270426,163417.000,0,58.14378,8.000628,-10.2,0.0,2.09,6,177.65,1,-2.021888,3.497108,0.001773,0.048405,0.060105,0.000863,0.000072,-0.001547,0.001403,0.000008,26.000001
1498,270426,163432.000,0,58.14379,8.000627,-6.9,0.0,2.08,6,355.51,1,-1.986531,3.469884,0.003057,0.113981,0.038188,-0.000125,0.003054,0.000084,0.001226,0.000009,28.000000
1512,270426,163447.000,0,58.14382,8.000629,-6.7,1.38,2.08,6,236.69,1,-2.012656,3.470933,0.004759,0.131321,0.045773,0.000324,-0.004585,-0.001232,0.001178,0.000009,19.000000
1526,270426,163502.000,0,58.14376,8.000723,-8.1,1.78,2.07,6,194.32,1,-1.997279,3.478128,0.002876,0.101425,0.044275,-0.002468,0.000839,0.001216,0.001187,0.000007,28.000000
1553,270426,163518.000,0,58.14382,8.000785,-10.1,0.0,1.59,7,115.16,1,-2.001074,3.471270,0.000592,0.052924,0.050079,0.000408,0.000388,0.000183,0.001403,0.000009,28.000000
1561,270426,163532.000,0,58.14382,8.000753,-11.5,0.0,1.59,7,115.16,1,-2.009218,3.475185,0.006016,0.176094,0.043071,0.003474,-0.004872,-0.000616,0.001183,0.000009,24.000001
1568,270426,163533.000,0,58.14382,8.000753,-11.5,0.0,1.59,7,256.93,1,-1.988954,3.472912,0.001907,0.085316,0.043603,0.000956,-0.001271,0.001052,0.001365,0.000010,22.000000
1576,270426,163547.000,0,58.14386,8.000707,-10.5,1.54,1.58,7,256.93,1,-1.981885,3.481194,0.004733,0.081163,0.043632,-0.001048,-0.002887,0.003602,0.001420,0.000009,20.000000
1590,270426,163602.000,0,58.14378,8.00068,-13.7,3.29,2.04,6,203.45,1,-1.972869,3.490808,0.002453,0.064396,0.041084,-0.002441,-0.000239,-0.000024,0.001587,0.000010,23.000000
1604,270426,163617.000,0,58.14379,8.000682,-13.0,0.0,1.24,8,29.84,1,-1.956509,3.493099,0.001842,0.198603,0.044539,0.000016,0.001664,-0.000791,0.001333,0.000008,27.000000
1643,270426,163648.000,0,58.14376,8.000631,-7.9,0.0,1.23,8,277.89,1,-1.978128,3.486148,0.002309,0.083915,0.034864,-0.001831,-0.000345,0.001364,0.001032,0.000005,24.000001
1657,270426,163703.000,0,58.14375,8.000658,-8.6,0.0,1.23,8,118.63,1,-1.962840,3.488699,0.002935,0.123457,0.032990,0.000697,0.001980,0.002052,0.000955,0.000005,25.000000
1671,270426,163718.000,0,58.14375,8.000639,-7.7,0.0,1.56,7,191.9,1,-1.964497,3.487609,0.003470,0.042876,0.043381,0.002590,0.001988,0.001176,0.001162,0.000007,27.000000
1678,270426,163732.000,0,58.14375,8.000639,-7.7,0.0,1.55,7,191.9,1,-1.972082,3.488623,0.001542,0.037805,0.043587,0.000715,0.001350,0.000205,0.001205,0.000006,28.000000
1686,270426,163733.000,0,58.14375,8.000639,-7.7,0.0,1.55,7,191.9,1,-2.000381,3.491002,0.002611,0.091783,0.054592,0.000174,-0.002364,-0.001096,0.002348,0.000013,21.000001
1693,270426,163747.000,0,58.14379,8.000653,-7.6,0.0,1.55,7,191.9,1,-2.004282,3.486230,0.001791,0.057872,0.047461,-0.000482,0.001634,-0.000554,0.002214,0.000013,19.000000
1701,270426,163748.000,0,58.14379,8.000653,-7.6,0.0,1.55,7,7.23,1,-1.985852,3.485989,0.002100,0.060680,0.041418,0.000014,0.002053,-0.000441,0.001134,0.000007,26.000001
1709,270426,163802.000,0,58.14382,8.000721,-7.9,0.0,1.54,7,7.23,1,-1.979656,3.481483,0.001205,0.065319,0.044001,0.000599,0.000999,0.000309,0.001185,0.000007,28.000000
1716,270426,163803.000,0,58.14382,8.000723,-7.9,0.0,1.55,7,141.93,1,-1.968622,3.483318,0.002552,0.101690,0.049845,0.000680,0.002178,0.001144,0.001080,0.000007,26.000001
1724,270426,163817.000,0,58.14381,8.000735,-8.4,0.0,1.22,8,58.41,1,-1.980488,3.485673,0.000861,0.089149,0.048760,0.000567,0.000046,0.000646,0.001064,0.000007,30.000000
1738,270426,163832.000,0,58.14381,8.000735,-8.4,0.0,1.22,8,58.41,1,-1.954802,3.487247,0.002611,0.044863,0.040290,-0.000239,-0.002468,0.000816,0.001003,0.000005,16.000000
1758,270426,163847.000,0,58.14381,8.000735,-8.4,0.0,1.22,8,58.41,1,-1.976068,3.479173,0.002484,0.057417,0.045771,-0.000444,-0.001575,0.001868,0.001353,0.000009,27.000000
1772,270426,163902.000,0,58.14375,8.000553,-8.2,0.0,1.26,7,295.13,1,-2.003376,3.483860,0.002663,0.068481,0.041823,0.000668,0.001010,0.002372,0.001309,0.000009,26.000001
1780,270426,163903.000,0,58.14375,8.000553,-8.2,1.49,1.26,7,295.13,1,-1.999757,3.480334,0.001857,0.046638,0.041539,0.000728,0.000318,-0.001678,0.001085,0.000008,24.000001
1794,270426,163918.000,0,58.14376,8.000666,-8.3,1.59,1.21,8,191.63,1,-2.007958,3.483539,0.002362,0.144219,0.044107,-0.001087,0.002094,-0.000105,0.001305,0.000009,25.000000
1808,270426,163933.000,0,58.14376,8.000693,-10.8,0.0,1.26,7,113.71,1,-2.028535,3.478807,0.003936,0.054053,0.046117,0.000475,-0.003690,-0.001282,0.001365,0.000007,26.000001
1822,270426,163948.000,0,58.14371,8.000715,-12.8,0.0,1.26,7,53.72,1,-2.017093,3.464204,0.002421,0.037654,0.043003,0.000552,-0.002077,-0.001114,0.001198,0.000009,18.000001
1836,270426,164003.000,0,58.14376,8.000607,-7.8,0.0,1.2,8,328.14,1,-2.028191,3.462986,0.002075,0.047360,0.037548,0.001751,-0.000834,0.000737,0.001361,0.000008,21.000001
1850,270426,164018.000,0,58.14381,8.000564,-3.3,0.0,1.2,8,328.14,1,-2.034845,3.450813,0.005055,0.080818,0.036598,0.001528,-0.004582,-0.001489,0.001404,0.000007,29.000001
1864,270426,164033.000,0,58.14379,8.000585,2.1,0.0,1.94,6,328.14,1,-2.037455,3.454455,0.003721,0.088012,0.041405,-0.000692,-0.003592,0.000680,0.001306,0.000008,27.000000
1878,270426,164048.000,0,58.14373,8.000592,2.1,0.0,1.5,7,159.22,1,-2.018127,3.465153,0.001448,0.018448,0.041215,-0.001305,0.000550,-0.000299,0.001204,0.000006,22.000000
1885,270426,164049.000,0,58.14373,8.000606,1.7,1.21,1.5,7,231.79,1,-2.016094,3.460814,0.002184,0.071099,0.040701,-0.000062,0.001673,0.001402,0.001083,0.000005,26.000001
1893,270426,164103.000,0,58.14373,8.000693,-0.9,1.77,1.2,8,231.79,1,-2.015663,3.452972,0.003778,0.057868,0.033400,-0.000360,-0.002805,0.002505,0.000874,0.000005,24.000001
1907,270426,164118.000,0,58.14373,8.0007,-1.4,0.0,1.19,8,77.59,1,-2.017787,3.481364,0.002020,0.091216,0.040619,-0.001996,0.000300,0.000064,0.001165,0.000008,20.000000
1914,270426,164119.000,0,58.14373,8.0007,-1.4,0.0,1.19,8,78.27,1,-2.007715,3.488640,0.001312,0.043784,0.038895,-0.001282,0.000112,-0.000252,0.001119,0.000007,19.000000
1922,270426,164133.000,0,58.14382,8.000718,-3.4,0.0,1.19,8,78.27,1,-2.013059,3.494388,0.002503,0.080316,0.031504,-0.001306,-0.002117,-0.000274,0.001061,0.000007,21.000001
1930,270426,164134.000,0,58.14382,8.000712,-3.4,0.0,1.19,8,250.28,1,-1.999331,3.495582,0.005004,0.147639,0.041171,0.000314,-0.004616,-0.001905,0.001133,0.000008,23.000000
1937,270426,164148.000,0,58.14384,8.0007,-3.7,0.0,1.19,8,334.51,1,-1.994138,3.497583,0.001401,0.042955,0.044124,0.000440,0.001209,-0.000556,0.001139,0.000008,21.000001
1951,270426,164203.000,0,58.14384,8.0007,-3.7,0.0,1.19,8,334.51,1,-1.989346,3.511669,0.001327,0.036999,0.036658,-0.000791,-0.000035,0.001065,0.000934,0.000005,23.000000
1984,270426,164233.000,0,58.14372,8.00065,-5.5,0.0,1.18,8,71.21,1,-2.004256,3.519583,0.007394,0.403320,0.137006,0.006759,0.001871,0.002341,0.003636,0.000032,21.000001
1998,270426,164248.000,0,58.14376,8.000675,-6.0,0.0,1.23,7,245.61,1,-2.002553,3.495293,0.002956,0.055764,0.082773,0.002552,-0.001408,0.000493,0.002120,0.000011,19.000000
2012,270426,164303.000,0,58.14376,8.000637,-5.4,0.0,1.08,8,191.08,1,-2.002100,3.474365,0.002510,0.035594,0.041612,0.000326,0.001690,0.001828,0.001064,0.000007,21.000001
2020,270426,164304.000,0,58.1438,8.000687,-4.7,1.47,1.08,8,18.83,1,-2.006997,3.475989,0.000813,0.012260,0.039170,0.000042,-0.000585,0.000563,0.001039,0.000007,24.000001
2027,270426,164318.000,0,58.14382,8.00069,-4.1,0.0,1.02,9,240.21,1,-2.010898,3.474000,0.002818,0.036111,0.033280,-0.002529,0.000769,-0.000979,0.000999,0.000006,20.000000
2041,270426,164333.000,0,58.14382,8.00069,-4.1,0.0,1.01,9,240.21,1,-2.043694,3.488940,0.002942,0.075542,0.127601,-0.000826,-0.001675,-0.002274,0.003642,0.000032,14.000000
2062,270426,164348.000,0,58.14382,8.00069,-4.1,0.0,1.01,9,240.21,1,-2.108061,3.507654,0.002942,0.043760,0.044454,-0.002150,-0.001988,0.000281,0.001294,0.000010,14.000000
2076,270426,164403.000,0,58.14382,8.00069,-4.1,0.0,1.01,9,240.21,1,-2.092196,3.514672,0.001340,0.044308,0.029948,-0.000403,0.000497,-0.001177,0.001044,0.000006,24.000001
2090,270426,164418.000,0,58.14382,8.00069,-4.1,0.0,1.01,9,240.21,1,-2.077940,3.512042,0.003228,0.055423,0.041443,0.000554,-0.001177,0.002954,0.001285,0.000007,24.000001
2097,270426,164432.000,0,58.14382,8.00072,-3.1,0.0,1.01,9,240.21,1,-2.092807,3.492462,0.000982,0.026456,0.113691,0.000312,0.000095,0.000926,0.003462,0.000023,20.000000
2105,270426,164433.000,0,58.14382,8.00072,-3.1,0.0,1.02,8,0.9700001,1,-2.064955,3.477917,0.003336,0.046392,0.132294,-0.001448,0.003004,-0.000065,0.003927,0.000031,23.000000
2113,270426,164447.000,0,58.14379,8.000708,-3.7,0.0,1.01,9,249.98,1,-2.095728,3.478356,0.005712,0.231722,0.115811,0.001779,0.005207,-0.001533,0.003873,0.000034,27.000000
2127,270426,164502.000,0,58.14379,8.000708,-3.7,0.0,1.07,8,249.98,1,-2.094393,3.466949,0.000956,0.009046,0.042919,0.000653,0.000449,-0.000535,0.001233,0.000008,15.000000
2141,270426,164517.000,0,58.14379,8.000708,-3.7,0.0,1.08,7,249.98,1,-3.708643,6.249681,0.121228,2.306637,0.923239,0.066177,-0.005059,-0.101447,0.137390,0.027554,10.000000
2155,270426,164518.000,0,58.14376,8.000729,-4.0,3.41,1.07,8,249.98,1,-6.067467,3.874080,0.400911,5.209951,1.433858,-0.143151,0.243490,0.284517,0.079024,0.041657,16.000000
2169,270426,164533.000,0,58.14379,8.000835,-7.4,3.35,1.01,9,249.98,1,-7.143823,5.058238,0.174067,1.794493,1.752626,-0.004753,-0.019999,0.172848,0.084479,0.045187,14.000000
2177,270426,164547.000,0,58.14386,8.001068,-10.8,3.79,1.01,8,249.98,1,-7.928375,2.997288,0.365469,2.953105,1.633360,0.271876,0.060181,0.236704,0.067225,0.048991,15.000000
2191,270426,164602.000,0,58.14396,8.001345,-12.8,4.04,1.01,8,30.43,1,-6.934734,1.182193,0.157503,1.974398,1.955005,0.029744,-0.115962,0.102349,0.098529,0.049832,16.000000
2211,270426,164617.000,0,58.14409,8.001543,-15.0,4.51888,1.01,9,43.43,1,-6.569947,-3.501441,0.141176,3.197587,2.330084,-0.085468,-0.073296,-0.085169,0.088452,0.065117,16.000000
2225,270426,164632.000,0,58.14416,8.001775,-15.7,4.42,1.01,9,62.55,1,-7.180461,-6.922604,0.351287,2.555341,1.743482,0.095580,0.057823,0.333052,0.084302,0.050036,14.000000
2239,270426,164647.000,0,58.1443,8.002015,-15.1,4.38,1.01,9,62.55,1,-6.567247,-5.561614,0.136040,3.563921,1.665145,-0.077471,-0.037182,0.105464,0.071822,0.052231,13.000001
2284,270426,164731.000,0,58.1446,8.002707,-8.4,4.39,0.98,9,52.55,1,-7.672907,0.333617,0.141043,2.245080,2.456263,-0.074126,-0.095205,-0.073037,0.095607,0.068312,15.000000
2292,270426,164745.000,0,58.14471,8.002934,-2.7,4.65,1.01,9,52.55,1,-7.593014,0.284216,0.146506,3.146174,2.236983,-0.025388,-0.077054,-0.121992,0.096486,0.064020,14.000000
2312,270426,164800.000,0,58.14488,8.003114,1.5,4.66,0.91,10,43.28,1,-5.973917,-0.332134,0.500861,2.905922,1.871900,0.034701,0.358972,0.347557,0.108354,0.067498,16.000000
2326,270426,164815.000,0,58.14497,8.003321,-2.2,5.06,0.98,9,81.86,1,-6.116440,-0.875315,0.300541,4.522769,1.975678,0.022465,0.176651,0.242105,0.089826,0.066524,14.000000
2334,270426,164829.000,0,58.145,8.00368,-0.8,6.85,0.91,10,81.86,1,-6.746386,-0.714812,0.097673,4.895943,1.630889,0.070595,-0.024524,-0.062889,0.080730,0.049917,14.000000
2348,270426,164844.000,0,58.1451,8.00384,3.3,4.28,0.98,9,79.25,1,-7.268333,0.073384,0.156876,8.553039,2.125079,-0.061890,-0.041196,-0.138140,0.081363,0.056199,16.000000
2362,270426,164845.000,0,58.14511,8.003846,3.6,4.18,0.98,9,39.11,1,-7.667922,0.237362,0.186640,3.715003,2.711918,0.101538,-0.048286,-0.148973,0.098471,0.050658,15.000000
2369,270426,164859.000,0,58.14521,8.003945,4.4,4.04,0.98,9,341.71,1,-8.337891,0.376842,0.246113,3.100508,2.187541,-0.044858,-0.048851,-0.237008,0.081559,0.048342,15.000000
2377,270426,164913.000,0,58.14537,8.003764,4.9,4.64,0.91,10,341.71,1,-8.043392,1.360566,0.337926,1.106911,2.406734,-0.109111,0.023456,0.318965,0.093150,0.061038,16.000000
2385,270426,164914.000,0,58.14537,8.00375,5.1,4.58,0.91,10,320.83,1,-7.636166,0.496290,0.071874,2.155996,2.435822,0.030354,0.034986,-0.054959,0.098889,0.060147,14.000000
2392,270426,164928.000,0,58.14544,8.00353,7.3,4.63,1.01,9,346.86,1,-7.485497,0.275743,0.224675,1.740426,2.328457,0.067374,0.006411,0.214240,0.096690,0.058187,14.000000
2413,270426,164943.000,0,58.14558,8.003675,5.1,4.71,0.91,10,31.0,1,-8.294589,2.598566,0.222812,2.130333,1.856761,-0.052755,0.022634,-0.215290,0.083943,0.048531,13.000001
2420,270426,164944.000,0,58.14559,8.003683,4.8,4.77,0.91,10,29.72,1,-6.341120,2.470597,0.374170,4.851202,1.971600,0.097629,0.311881,0.182214,0.089687,0.057715,13.000001
2428,270426,164958.000,0,58.1457,8.00387,-0.3,4.77,0.91,10,29.72,1,-6.704378,2.311826,0.153919,3.269130,1.954420,0.016730,-0.044962,0.146251,0.081379,0.059048,13.000001
2442,270426,165013.000,0,58.14582,8.004095,-3.1,4.25,0.91,10,47.22,1,-6.415798,1.866980,0.126082,7.812684,2.014435,0.120866,-0.031776,-0.016681,0.089804,0.050426,16.000000
2462,270426,165028.000,0,58.14596,8.004303,-3.6,4.7,1.02,9,53.08,1,-6.168447,0.697174,0.185188,12.508222,3.183060,-0.099565,0.027319,-0.153738,0.114016,0.068338,20.000000
2476,270426,165043.000,0,58.14605,8.004607,-2.4,4.83,0.91,10,42.59,1,-6.679066,1.234462,0.280562,3.779556,2.864614,-0.058038,0.058089,-0.268276,0.105443,0.063792,18.000001
2483,270426,165057.000,0,58.14619,8.004815,-1.1,4.92,0.91,10,42.67,1,-7.590127,0.761827,0.105235,4.138521,2.578144,0.011569,-0.068855,0.078737,0.097173,0.060337,16.000000
2504,270426,165112.000,0,58.14631,8.005052,0.1,4.66,1.02,9,48.44,1,-7.749900,1.822752,0.100555,4.430551,2.375653,0.004904,-0.061099,0.079714,0.096378,0.056803,20.000000
2518,270426,165127.000,0,58.14641,8.00536,1.8,6.58,0.91,9,83.68,1,-9.033434,2.711893,0.159238,4.876466,2.200086,-0.025895,-0.092629,0.126909,0.075879,0.052732,15.000000
2532,270426,165142.000,0,58.14629,8.005645,12.3,8.25,0.91,10,90.0,1,-8.912830,3.119285,0.423036,4.688385,2.307284,0.077685,0.143431,0.390322,0.084380,0.057291,17.000000
2539,270426,165143.000,0,58.14628,8.005655,11.6,7.68,0.91,10,144.0,1,-8.491333,1.642800,0.245807,2.155902,2.288303,0.057962,0.027979,-0.237232,0.090889,0.063701,15.000000
2547,270426,165157.000,0,58.14617,8.00578,16.1,22.0,0.91,10,144.0,1,-7.806227,-0.124629,0.162343,4.995375,2.444199,0.011560,-0.096030,0.130384,0.091820,0.071977,13.000001
2561,270426,165212.000,0,58.14605,8.005995,17.8,4.54,0.91,10,142.71,1,-6.762343,-1.699639,0.126644,2.368047,2.443097,0.037001,-0.075867,-0.094413,0.102140,0.065639,15.000000
2581,270426,165227.000,0,58.14592,8.00626,15.7,4.70408,0.91,10,107.23,1,-8.121056,-1.303463,0.081207,2.059811,2.262035,-0.016779,-0.035697,-0.070984,0.089579,0.049264,16.000000
2595,270426,165242.000,0,58.14598,8.006566,12.8,4.07,0.91,10,41.34,1,-7.375939,-2.297321,0.119630,6.408405,2.214724,0.015174,0.006179,-0.118502,0.085340,0.058195,15.000000
2609,270426,165257.000,0,58.1461,8.006742,6.9,4.23,1.02,9,41.34,1,-8.797220,-0.485103,0.221647,1.820155,1.788544,-0.135549,0.125826,-0.122155,0.063775,0.041783,16.000000
2636,270426,165313.000,0,58.1462,8.007044,0.2,4.92632,0.9700001,9,76.30001,1,-8.149635,2.514582,0.110817,3.263854,1.826944,-0.064107,-0.027526,-0.086099,0.078894,0.046287,15.000000
2643,270426,165327.000,0,58.14624,8.007377,-6.2,4.92632,0.91,10,76.30001,1,-7.412358,2.010206,0.258505,1.364694,2.072972,0.088533,-0.047310,0.238220,0.083679,0.048933,15.000000
2657,270426,165342.000,0,58.14635,8.007602,-10.2,4.41,0.9,10,70.06,1,-6.905147,2.060406,0.246675,2.264015,2.522459,0.082175,-0.036523,0.229700,0.092247,0.051899,14.000000
2671,270426,165357.000,0,58.14643,8.007908,-11.3,4.62,0.9,10,90.2,1,-7.039216,-0.585474,0.307113,1.256271,1.682783,0.120829,-0.009089,0.282198,0.081177,0.045279,14.000000
2678,270426,165411.000,0,58.14633,8.008114,-7.8,4.32,0.9,10,162.91,1,-7.976069,-1.224155,0.234485,1.600486,1.894176,0.024663,-0.078345,0.219629,0.078397,0.051406,14.000000
2699,270426,165426.000,0,58.14613,8.008289,-1.6,5.4,1.0,9,151.25,1,-6.995697,-3.266944,0.137196,3.328850,2.268659,-0.018798,0.063582,-0.120111,0.089808,0.058681,15.000000
2713,270426,165441.000,0,58.14598,8.008525,2.5,5.55,1.0,9,151.25,1,-6.746778,-3.214595,0.319895,3.149599,2.012235,0.000646,-0.038993,-0.317509,0.078494,0.055460,14.000000
2726,270426,165456.000,0,58.14579,8.008603,6.2,5.08,1.19,9,151.25,1,-6.840169,-3.234198,0.157011,3.154986,1.746815,0.009794,-0.155877,0.016082,0.077253,0.044180,14.000000
2740,270426,165511.000,0,58.14565,8.008655,7.8,3.7,1.0,9,151.25,1,-6.145178,-4.689545,0.088254,8.071865,2.004611,-0.032524,0.057938,-0.058086,0.079637,0.050499,16.000000
2748,270426,165512.000,0,58.14564,8.00866,7.7,3.67,1.0,9,149.85,1,-6.988407,-5.652964,0.167596,2.168168,1.980417,0.022487,-0.071394,-0.149953,0.083414,0.046909,18.000001
2762,270426,165527.000,0,58.14547,8.008788,5.9,4.99,1.0,9,179.54,1,-8.361954,-5.269619,0.112467,3.900225,1.887052,0.014499,-0.072393,0.084840,0.080246,0.043666,16.000000
2776,270426,165542.000,0,58.14528,8.00879,4.3,5.82,1.0,9,162.56,1,-9.196522,-5.073945,0.370637,2.274676,1.936582,-0.099481,-0.003737,-0.357017,0.076949,0.047846,16.000000
2790,270426,165557.000,0,58.1451,8.008865,0.4,5.15,1.0,9,162.56,1,-8.931879,-5.357956,0.245579,3.533878,1.903192,-0.000283,-0.042799,-0.241821,0.073392,0.046491,14.000000
2810,270426,165626.000,0,58.14476,8.00905,-3.2,5.2,0.84,11,17.0,1,-8.876732,-4.529631,0.216341,4.482927,2.056840,-0.118598,-0.015069,-0.180308,0.081331,0.048486,16.000000
2824,270426,165627.000,0,58.14476,8.009062,-3.6,5.26,0.84,11,155.32,1,-5.836660,-1.235432,0.113836,0.052684,2.312558,-0.049534,0.102492,0.000750,0.082106,0.043282,12.000000
2832,270426,165641.000,0,58.14463,8.009083,-5.5,5.26,0.84,11,155.32,1,-3.461352,-0.085229,0.070166,0.067879,1.062421,-0.032015,0.062264,0.004640,0.052470,0.019020,4.000000
2846,270426,165656.000,0,58.14466,8.008958,-10.8,8.39,1.03,10,341.82,1,-1.203334,0.934837,0.023837,0.150638,0.301639,-0.011633,0.020798,0.000580,0.013929,0.002486,8.000000
2860,270426,165711.000,0,58.14462,8.009018,-17.3,2.28,1.05,9,341.82,1,-0.322717,1.375024,0.008265,0.013797,0.092555,-0.003887,0.006889,0.002396,0.005593,0.000307,5.000000
2874,270426,165726.000,0,58.14464,8.009035,-24.1,2.21,1.05,9,273.37,1,-0.016481,1.506058,0.002912,0.046210,0.079559,-0.001914,0.002162,-0.000370,0.002647,0.000056,22.000000
2888,270426,165741.000,0,58.14467,8.009057,-26.5,1.83,1.05,9,21.61,1,0.109235,1.532573,0.009614,0.364495,0.092724,0.005270,0.007048,0.003870,0.002270,0.000022,26.000001
2902,270426,165756.000,0,58.14466,8.00906,-27.9,1.53,1.05,9,342.28,1,0.188247,1.558095,0.004272,0.057063,0.054876,0.001134,0.002273,-0.003435,0.001581,0.000013,24.000001
2923,270426,165812.000,0,58.14464,8.009089,-26.8,0.0,1.05,9,37.77,1,0.191577,1.552782,0.004339,0.063575,0.162571,0.001071,-0.002793,-0.003143,0.009138,0.000158,22.000000
2936,270426,165827.000,0,58.14464,8.009089,-26.8,0.0,1.05,9,37.77,1,0.195851,1.497571,0.004399,0.082667,0.273180,0.001261,-0.003607,-0.002180,0.011261,0.000192,16.000000
2950,270426,165842.000,0,58.14466,8.009046,-26.7,0.0,1.05,9,37.77,1,0.172921,1.461984,0.001576,0.061980,0.095754,0.000708,0.000691,0.001228,0.003081,0.000024,22.000000
2958,270426,165843.000,0,58.14466,8.009042,-26.6,0.0,1.05,9,225.57,1,0.180912,1.448042,0.003142,0.070136,0.054152,0.001492,-0.002125,-0.001768,0.001834,0.000012,18.000001
2972,270426,165858.000,0,58.14466,8.009042,-26.6,0.0,1.05,9,225.57,1,0.157656,1.435668,0.002151,0.161899,0.069199,0.000758,-0.000876,0.001812,0.001678,0.000015,29.000001
2986,270426,165913.000,0,58.14466,8.009046,-23.4,0.0,1.05,9,225.57,1,0.182786,1.420522,0.000831,0.051310,0.058606,0.000314,0.000157,-0.000753,0.001473,0.000011,21.000001
3000,270426,165928.000,0,58.14466,8.009025,-21.3,0.0,1.05,9,225.57,1,0.239907,1.400913,0.002964,0.099925,0.048662,-0.000516,-0.002913,-0.000190,0.001605,0.000011,18.000001
3007,270426,165943.000,0,58.14466,8.009023,-21.1,0.0,0.91,10,217.94,1,0.224230,1.370014,0.008545,0.184691,0.128521,-0.003599,-0.004860,0.006037,0.004272,0.000047,24.000001
3034,270426,165959.000,0,58.14466,8.009023,-21.1,0.0,0.91,10,217.94,1,0.196785,1.331736,0.006204,0.106709,0.075881,0.001379,0.005766,0.001830,0.001993,0.000019,24.000001
3042,270426,170013.000,0,58.14466,8.00906,-16.3,0.0,0.91,10,217.94,1,0.165154,1.332388,0.001353,0.075161,0.067186,0.000501,-0.001002,0.000758,0.001832,0.000016,22.000000
3049,270426,170014.000,0,58.14466,8.00906,-16.3,0.0,0.91,10,61.61,1,0.199395,1.324908,0.017151,0.131069,0.061250,0.002412,0.016454,0.004196,0.002753,0.000019,18.000001
3057,270426,170028.000,0,58.14466,8.00906,-16.3,0.0,0.91,9,61.61,1,0.185735,1.294169,0.003949,0.052082,0.099363,0.000645,0.003528,-0.001652,0.003508,0.000029,18.000001
3071,270426,170043.000,0,58.14466,8.00906,-16.3,0.0,0.91,10,61.61,1,0.230992,1.268622,0.001608,0.084979,0.042690,0.001324,0.000417,-0.000813,0.001314,0.000012,20.000000
3091,270426,170058.000,0,58.14466,8.00906,-16.3,0.0,1.05,9,61.61,1,0.233628,1.224764,0.002776,0.124267,0.082759,0.001520,0.001839,-0.001419,0.003345,0.000025,27.000000
3105,270426,170113.000,0,58.14466,8.00906,-16.3,0.0,0.91,10,61.61,1,0.216676,1.209118,0.001389,0.066966,0.070474,-0.000155,-0.000074,0.001379,0.001849,0.000013,25.000000
3119,270426,170128.000,0,58.14466,8.00906,-16.3,0.0,0.91,10,61.61,1,0.169842,1.188199,0.003416,0.126657,0.052045,-0.001821,-0.002053,-0.002033,0.001489,0.000010,18.000001
3127,270426,170142.000,0,58.14466,8.00906,-16.3,0.0,0.91,10,61.61,1,0.177920,1.197690,0.002757,0.091678,0.141675,0.001136,0.001697,0.001853,0.006918,0.000062,19.000000
3141,270426,170157.000,0,58.14466,8.00906,-16.3,0.0,0.91,10,61.61,1,0.179672,1.198553,0.002186,0.054832,0.049870,-0.001092,-0.001867,0.000318,0.001361,0.000009,15.000000
3167,270426,170213.000,0,58.14466,8.00906,-16.3,0.0,0.91,10,61.61,1,0.205460,1.185062,0.003930,0.168266,0.055373,0.001785,0.001457,0.003184,0.001600,0.000011,32.000000
3181,270426,170228.000,0,58.1446,8.009065,-14.8,0.0,0.91,10,334.88,1,0.224315,1.182502,0.001071,0.031387,0.061875,-0.001018,-0.000323,0.000073,0.001637,0.000012,25.000000
3195,270426,170243.000,0,58.14464,8.00902,-14.5,0.0,0.91,10,328.91,1,0.235145,1.170485,0.001403,0.066070,0.047210,0.000461,0.001079,-0.000769,0.001558,0.000012,25.000000
3203,270426,170257.000,0,58.14464,8.009018,-14.5,0.0,0.91,10,328.91,1,0.305142,1.162751,0.002551,0.083033,0.112503,-0.000889,0.002178,-0.000987,0.005922,0.000056,19.000000
3217,270426,170312.000,0,58.14464,8.00905,-14.9,0.0,0.92,9,222.09,1,0.349799,1.139825,0.002839,0.018299,0.116982,-0.000033,0.002733,0.000766,0.006179,0.000053,19.000000
3244,270426,170328.000,0,58.14464,8.009015,-14.1,0.0,0.91,10,139.97,1,0.270470,1.124543,0.001872,0.086540,0.046685,0.000997,-0.001121,-0.001120,0.001546,0.000012,21.000001
3258,270426,170343.000,0,58.14466,8.009028,-14.2,1.5,0.91,10,23.92,1,0.238725,1.053869,0.005539,0.123172,1.195954,0.001256,0.001134,0.005274,0.046596,0.002452,18.000001
3272,270426,170358.000,0,58.14467,8.00904,-14.1,0.0,0.92,10,36.2,1,0.247798,1.085335,0.001827,0.048242,0.092041,0.000664,-0.001700,-0.000081,0.002525,0.000031,14.000000
3286,270426,170413.000,0,58.14468,8.008993,-13.5,1.63,1.05,9,70.37,1,0.243322,1.081186,0.004253,0.066408,0.072638,-0.001660,0.003124,0.002361,0.001741,0.000017,16.000000
3299,270426,170428.000,0,58.14467,8.00897,-13.6,0.0,0.92,10,209.68,1,0.284865,1.071423,0.002880,0.100133,0.070918,-0.002021,-0.000879,-0.001853,0.002960,0.000022,17.000000
3307,270426,170442.000,0,58.14464,8.009002,-13.8,0.0,0.92,10,205.42,1,0.252254,1.065696,0.002356,0.109948,0.068024,0.000962,-0.002150,-0.000031,0.002065,0.000015,27.000000
3327,270426,170457.000,0,58.14464,8.009002,-13.8,0.0,0.92,10,205.42,1,0.253801,1.058587,0.003363,0.100352,0.135483,0.000825,-0.003151,-0.000840,0.004725,0.000043,25.000000
3335,270426,170511.000,0,58.14463,8.008986,-12.8,0.0,0.92,10,205.42,1,0.257608,1.050611,0.001266,0.048844,0.046820,-0.000170,-0.000653,-0.001072,0.001243,0.000009,22.000000
3362,270426,170527.000,0,58.14463,8.008986,-12.8,0.0,0.92,10,220.85,1,0.262767,1.036965,0.001709,0.044760,0.048205,0.000835,-0.001481,-0.000179,0.001308,0.000010,25.000000
3370,270426,170541.000,0,58.14463,8.008986,-12.8,0.0,0.92,10,220.85,1,0.244617,1.042415,0.002883,0.063458,0.105359,0.002366,-0.000303,-0.001621,0.003143,0.000023,21.000001
3390,270426,170556.000,0,58.14464,8.009035,-13.1,0.0,0.92,10,77.24,1,0.252913,1.033520,0.002064,0.029483,0.035871,-0.000526,0.000268,0.001978,0.001119,0.000007,19.000000
3404,270426,170610.000,0,58.14466,8.009053,-12.9,0.0,1.09,9,77.24,1,0.247159,1.026544,0.003298,0.048950,0.046615,-0.000898,0.002811,0.001472,0.001476,0.000010,22.000000
3418,270426,170625.000,0,58.14466,8.009053,-12.9,0.0,1.09,9,332.35,1,0.277774,1.026617,0.005993,0.083348,0.093254,0.001360,-0.005519,-0.001898,0.003839,0.000027,31.000001
3426,270426,170639.000,0,58.14466,8.009053,-12.9,0.0,1.09,9,332.35,1,0.288203,1.039755,0.006698,0.129563,0.060783,-0.000837,-0.006559,-0.001070,0.002494,0.000018,25.000000
3446,270426,170654.000,0,58.14466,8.009027,-14.0,0.0,1.09,9,139.17,1,0.277824,1.015792,0.004131,0.086846,0.052705,0.000730,0.003989,0.000789,0.001735,0.000012,21.000001
3453,270426,170708.000,0,58.14468,8.009048,-14.6,0.0,1.09,9,139.17,1,0.272962,1.025428,0.003137,0.043528,0.065480,-0.001513,0.000037,0.002748,0.001724,0.000014,23.000000
3474,270426,170723.000,0,58.1447,8.00903,-14.1,0.0,0.92,10,278.34,1,0.267390,1.015062,0.002867,0.061066,0.058739,0.000237,0.002582,0.001223,0.001372,0.000014,21.000001
3481,270426,170737.000,0,58.14466,8.009022,-14.7,0.0,0.92,10,155.63,1,0.286285,1.019621,0.002636,0.067416,0.051687,0.002368,-0.001159,-0.000008,0.001345,0.000012,18.000001
3495,270426,170738.000,0,58.14466,8.009022,-14.7,0.0,0.92,10,155.63,1,0.263798,1.009836,0.002715,0.086111,0.052574,-0.000516,-0.002103,-0.001638,0.001487,0.000010,30.000000
3503,270426,170752.000,0,58.14466,8.009022,-14.7,0.0,0.92,10,155.63,1,0.268574,0.999726,0.002944,0.054648,0.053437,0.002053,-0.000005,0.002109,0.001517,0.000010,22.000000
3510,270426,170806.000,0,58.14465,8.00906,-14.3,0.0,0.95,9,333.27,1,0.283358,0.997053,0.002618,0.122540,0.051058,0.001600,0.002068,-0.000134,0.001546,0.000012,18.000001
3531,270426,170821.000,0,58.14465,8.00906,-14.3,0.0,1.09,9,333.27,1,0.296625,1.007577,0.003508,0.098123,0.069404,0.000953,0.003295,0.000736,0.001911,0.000015,26.000001
3539,270426,170835.000,0,58.14465,8.00906,-14.3,0.0,1.09,9,333.27,1,0.286503,1.017403,0.004510,0.098774,0.054548,-0.000607,-0.004457,-0.000331,0.001731,0.000012,28.000000
3546,270426,170836.000,0,58.14465,8.00906,-14.3,0.0,1.09,9,333.27,1,0.258178,1.014108,0.001091,0.031659,0.056015,-0.000647,0.000060,0.000876,0.001465,0.000011,30.000000
3554,270426,170850.000,0,58.14464,8.009028,-14.8,0.0,1.09,9,315.73,1,0.263912,1.002026,0.003054,0.049930,0.050609,-0.001204,0.001908,0.002057,0.001427,0.000011,30.000000
3569,270426,170905.000,0,58.14463,8.009018,-15.4,0.0,1.09,9,145.24,1,0.282101,0.988435,0.002657,0.145507,0.060936,0.002565,-0.000234,0.000651,0.001655,0.000011,24.000001
3583,270426,170906.000,0,58.14462,8.009027,-15.5,0.0,1.09,9,226.34,1,0.278844,1.004290,0.001557,0.039480,0.054775,-0.001184,0.000677,0.000752,0.001415,0.000012,25.000000
3597,270426,170921.000,0,58.14462,8.009073,-16.5,1.46,1.09,9,175.86,1,0.296089,1.000374,0.001790,0.047892,0.057168,0.000831,0.001228,0.001003,0.001635,0.000011,26.000001
3611,270426,170936.000,0,58.14464,8.009065,-16.4,0.0,0.92,10,319.85,1,0.314225,0.997516,0.001627,0.063144,0.048284,0.001244,-0.001034,-0.000181,0.001271,0.000011,16.000000
3625,270426,170951.000,0,58.14464,8.009065,-16.4,0.0,1.09,9,319.85,1,0.262416,0.985455,0.004502,0.240344,0.060214,0.000114,0.003150,0.003214,0.001688,0.000013,24.000001
3639,270426,171006.000,0,58.14464,8.009065,-16.4,0.0,1.09,9,319.85,1,0.270311,0.988461,0.003228,0.028312,0.053933,-0.001031,-0.001966,-0.002343,0.001748,0.000013,30.000000
3646,270426,171020.000,0,58.14463,8.009067,-17.0,0.0,1.09,9,319.85,1,0.267039,0.983302,0.001247,0.095451,0.045231,0.000134,0.001133,-0.000502,0.001514,0.000010,26.000001
3660,270426,171035.000,0,58.14467,8.009035,-17.6,0.0,1.09,9,177.79,1,0.249612,0.989737,0.001847,0.022206,0.052711,0.000224,-0.000999,-0.001537,0.001965,0.000012,21.000001
3674,270426,171050.000,0,58.14463,8.009048,-17.3,1.5,1.09,9,294.99,1,0.278632,0.972586,0.002964,0.095999,0.057526,0.000982,0.001281,0.002486,0.001556,0.000011,18.000001
3689,270426,171105.000,0,58.14464,8.009031,-17.0,0.0,1.09,9,314.82,1,0.254879,0.964851,0.002410,0.036315,0.047523,0.001151,-0.001828,-0.001069,0.001410,0.000009,25.000000
3703,270426,171106.000,0,58.14464,8.009031,-17.0,0.0,1.09,9,196.08,1,0.292377,0.964802,0.002587,0.051840,0.041277,0.000415,-0.002236,-0.001234,0.001353,0.000009,21.000001
3729,270426,171136.000,0,58.1446,8.009042,-13.8,1.56,1.09,9,333.45,1,0.304985,0.962658,0.003621,0.024717,0.039491,-0.000321,0.003516,0.000804,0.001241,0.000007,28.000000
3743,270426,171151.000,0,58.14466,8.009054,-12.5,1.69,1.09,9,333.45,1,0.304497,0.972030,0.003128,0.128358,0.243259,0.003014,0.000718,0.000436,0.008427,0.000098,30.000000
3757,270426,171206.000,0,58.14466,8.009033,-11.6,0.0,1.09,9,341.6,1,0.293301,0.951891,0.002081,0.086282,0.086234,-0.001369,0.001402,0.000700,0.002925,0.000018,21.000001
3771,270426,171221.000,0,58.14467,8.009012,-11.4,0.0,1.09,9,244.41,1,0.317652,0.961069,0.003895,0.135421,0.047897,0.001945,-0.003166,-0.001166,0.001459,0.000009,25.000000
3779,270426,171236.000,0,58.14467,8.009027,-11.4,0.0,1.09,9,52.0,1,0.303892,0.957908,0.001857,0.050825,0.064421,-0.001627,0.000728,0.000521,0.001862,0.000012,23.000000
3793,270426,171237.000,0,58.14467,8.009027,-11.4,0.0,1.09,9,0.29,1,0.292628,0.962832,0.002608,0.048880,0.044442,0.001006,0.002394,-0.000239,0.001262,0.000008,27.000000
3807,270426,171252.000,0,58.14464,8.009038,-11.5,0.0,1.09,9,0.29,1,0.298477,0.953521,0.002664,0.015642,0.053850,-0.000334,0.001669,0.002049,0.001604,0.000010,16.000000
3821,270426,171307.000,0,58.14464,8.009015,-11.2,0.0,0.92,10,0.29,1,0.282467,0.946070,0.004300,0.094376,0.058561,0.000474,-0.004266,-0.000257,0.001564,0.000013,29.000001
3835,270426,171322.000,0,58.14464,8.009015,-11.2,0.0,0.92,10,0.29,1,0.304702,0.955914,0.002364,0.121448,0.043090,-0.000453,0.002305,-0.000271,0.001476,0.000011,20.000000
3849,270426,171337.000,0,58.1446,8.009017,-11.6,0.0,0.92,10,0.29,1,0.309252,0.950598,0.001876,0.105662,0.055302,-0.000409,0.001489,0.001066,0.002803,0.000017,25.000000
3863,270426,171352.000,0,58.14461,8.009047,-11.0,0.0,0.92,10,0.29,1,0.321199,0.945298,0.003614,0.075445,0.044096,0.000515,0.000900,0.003462,0.001208,0.000007,25.000000
3877,270426,171407.000,0,58.14463,8.009023,-11.0,0.0,0.92,10,167.31,1,0.322370,0.949094,0.004016,0.085610,0.035351,0.001743,-0.003617,0.000094,0.001275,0.000009,24.000001
3891,270426,171422.000,0,58.14463,8.009023,-11.0,0.0,0.92,10,167.31,1,0.327764,0.953838,0.003659,0.145530,0.065536,-0.001099,0.003490,0.000007,0.001868,0.000017,24.000001
3905,270426,171437.000,0,58.1446,8.009124,-10.8,1.37,0.92,10,148.77,1,0.337431,0.930515,0.000862,0.037881,0.067340,-0.000147,0.000264,0.000807,0.001839,0.000015,27.000000
3919,270426,171452.000,0,58.1446,8.009116,-10.8,0.0,0.92,10,50.3,1,0.336447,0.943778,0.002753,0.072700,0.057488,-0.001010,0.002111,0.001451,0.001821,0.000014,20.000000
3933,270426,171507.000,0,58.1446,8.009116,-10.8,0.0,0.92,10,50.3,1,0.314129,0.937939,0.003599,0.148197,0.058080,0.000176,-0.002975,-0.002018,0.001453,0.000012,23.000000
3947,270426,171522.000,0,58.1446,8.009116,-10.8,0.0,0.92,10,50.3,1,0.279001,0.927491,0.001119,0.040529,0.059350,-0.000826,-0.000055,0.000752,0.001992,0.000014,18.000001
3961,270426,171537.000,0,58.14461,8.009048,-10.4,0.0,0.92,10,153.41,1,0.322071,0.925755,0.003267,0.142376,0.059925,-0.001207,0.002851,0.001042,0.001808,0.000016,23.000000
3976,270426,171552.000,0,58.14461,8.009048,-10.4,0.0,0.92,10,147.87,1,0.322391,0.929222,0.003450,0.053439,0.045098,-0.001336,-0.001403,-0.002855,0.001624,0.000011,21.000001
4015,270426,171623.000,0,58.14461,8.009048,-10.4,0.0,0.92,10,147.87,1,0.309589,0.912761,0.002144,0.028276,0.049811,-0.000386,-0.000820,-0.001943,0.001493,0.000011,21.000001
4029,270426,171638.000,0,58.14459,8.009119,-13.3,1.45,0.92,10,137.58,1,0.313437,0.928354,0.000932,0.034702,0.050023,-0.000087,-0.000652,-0.000660,0.001216,0.000008,26.000001
4043,270426,171653.000,0,58.1446,8.009125,-12.6,0.0,0.92,10,321.49,1,0.305781,0.925241,0.003465,0.019451,0.065975,-0.000773,-0.002709,-0.002017,0.001502,0.000012,18.000001
4057,270426,171708.000,0,58.1446,8.009125,-12.6,0.0,0.92,10,321.49,1,0.347226,0.913179,0.004780,0.129403,0.060669,0.000407,0.004731,0.000544,0.001768,0.000012,32.000000
4071,270426,171723.000,0,58.1446,8.009125,-12.6,0.0,0.92,10,321.49,1,0.327690,0.907289,0.001491,0.068629,0.039674,0.000147,0.000446,-0.001415,0.001233,0.000008,22.000000
4092,270426,171738.000,0,58.1446,8.009125,-12.6,0.0,0.92,10,321.49,1,0.307765,0.909090,0.001686,0.047943,0.053932,0.001283,0.000058,-0.001093,0.001473,0.000010,23.000000
4105,270426,171753.000,0,58.1446,8.009125,-12.6,0.0,0.92,10,321.49,1,0.340605,0.913432,0.003805,0.092895,0.041813,-0.002499,0.001910,0.002142,0.001163,0.000007,27.000000
4119,270426,171808.000,0,58.1446,8.009125,-12.6,0.0,0.92,10,321.49,1,0.359172,0.896477,0.029538,1.185365,0.441867,0.012856,0.018933,-0.018674,0.013500,0.000237,28.000000
4133,270426,171823.000,0,58.14461,8.009073,-6.9,0.0,0.92,10,183.09,1,0.345950,0.906178,0.003830,0.102806,0.398671,0.002701,0.002688,-0.000392,0.009040,0.000104,20.000000
4147,270426,171838.000,0,58.14461,8.009077,-7.0,0.0,0.92,10,183.09,1,0.314324,0.901997,0.003051,0.039164,0.058194,-0.000986,-0.001173,0.002639,0.001588,0.000013,26.000001
4155,270426,171839.000,0,58.14461,8.009077,-7.0,0.0,0.92,10,183.09,1,0.298296,0.893025,0.001728,0.059429,0.043891,-0.000798,-0.000642,0.001393,0.001363,0.000010,26.000001
4163,270426,171853.000,0,58.14466,8.009013,-7.2,0.0,0.92,10,327.53,1,0.278178,0.886699,0.003059,0.128648,0.046921,0.001614,0.002408,-0.000978,0.001527,0.000009,24.000001
4171,270426,171907.000,0,58.14467,8.009028,-6.8,0.0,0.92,10,327.53,1,0.285891,0.885499,0.002090,0.046525,0.049925,0.000511,0.002024,0.000095,0.001723,0.000010,25.000000
4184,270426,171908.000,0,58.14467,8.009028,-6.8,0.0,0.92,10,303.18,1,0.313791,0.880417,0.005873,0.148519,0.056440,-0.000146,0.005430,0.002233,0.001811,0.000013,17.000000
4198,270426,171923.000,0,58.14464,8.009033,-6.8,0.0,0.92,10,113.73,1,0.316997,0.881728,0.000253,0.085273,0.073175,-0.000155,0.000014,-0.000199,0.001753,0.000012,24.000001
4206,270426,171937.000,0,58.14465,8.009025,-6.9,0.9700001,0.92,10,113.73,1,0.316379,0.890448,0.005623,0.180737,0.051510,-0.002081,-0.005223,-0.000067,0.001343,0.000008,28.000000
4220,270426,171938.000,0,58.14465,8.00902,-6.9,0.0,0.92,10,333.14,1,0.295852,0.898573,0.001378,0.068105,0.054722,-0.000358,-0.001324,-0.000140,0.001744,0.000011,22.000000
4241,270426,172007.000,0,58.14465,8.009018,-6.9,0.0,0.92,10,333.14,1,0.333834,0.894597,0.002262,0.007360,0.040833,0.001679,0.000567,0.001406,0.001008,0.000006,23.000000
4255,270426,172022.000,0,58.14467,8.009033,-7.8,0.0,0.92,10,311.34,1,0.323047,0.890171,0.002158,0.094911,0.035403,0.000330,-0.001302,-0.001689,0.000951,0.000006,24.000001
4275,270426,172051.000,0,58.14471,8.009,-8.6,0.0,0.92,10,70.28,1,0.384036,0.887589,0.001633,0.018799,0.049079,0.000529,-0.000776,-0.001336,0.001798,0.000012,14.000000
4289,270426,172052.000,0,58.1447,8.009,-8.6,0.0,0.92,10,70.28,1,0.290848,0.876600,0.002076,0.050565,0.054357,0.000833,-0.001721,-0.000811,0.001876,0.000012,20.000000
4303,270426,172107.000,0,58.14469,8.009015,-8.9,0.0,0.92,10,326.23,1,0.322697,0.872822,0.000802,0.070511,0.066365,-0.000569,-0.000080,-0.000560,0.002322,0.000016,17.000000
4311,270426,172121.000,0,58.1447,8.009018,-10.0,1.65,0.92,10,326.23,1,0.331896,0.871002,0.011588,0.462999,0.091619,-0.002624,-0.010101,-0.005036,0.002759,0.000019,25.000000
4325,270426,172136.000,0,58.1447,8.00902,-10.0,0.0,0.92,10,12.89,1,0.341569,0.856422,0.002769,0.174369,0.084245,-0.001580,0.002274,-0.000005,0.002459,0.000022,29.000001
4345,270426,172151.000,0,58.14464,8.009093,-9.7,1.04,0.92,10,45.0,1,0.336242,0.842021,0.004836,0.090026,0.054904,-0.000379,-0.004586,-0.001488,0.001453,0.000012,20.000000
4353,270426,172205.000,0,58.14464,8.009072,-9.3,1.04,0.92,10,45.0,1,0.334148,0.850126,0.001954,0.055935,0.045734,-0.001189,0.001544,0.000143,0.001308,0.000010,23.000000
4361,270426,172206.000,0,58.14464,8.009072,-9.3,0.0,0.92,10,153.52,1,0.356000,0.868056,0.002038,0.046278,0.063643,0.000689,0.001172,-0.001519,0.001748,0.000010,23.000000
4368,270426,172220.000,0,58.14464,8.009072,-9.3,0.0,0.92,10,153.52,1,0.356701,0.874901,0.002740,0.087926,0.065519,-0.002482,0.000181,-0.001145,0.001714,0.000010,26.000001
4401,270426,172250.000,0,58.14464,8.00903,-8.6,0.0,1.13,9,185.75,1,0.348484,0.862774,0.002963,0.148419,0.093714,-0.000972,-0.002733,0.000605,0.003161,0.000028,27.000000
4415,270426,172305.000,0,58.14463,8.009044,-8.4,0.0,1.0,9,185.75,1,0.355042,0.865164,0.005643,0.150395,0.069637,-0.001470,0.001275,0.005297,0.002084,0.000016,22.000000
4429,270426,172320.000,0,58.14463,8.009044,-8.4,0.0,0.92,10,91.04,1,0.345143,0.866208,0.008372,0.178488,0.108234,0.000411,-0.008282,-0.001152,0.004790,0.000040,21.000001
4449,270426,172335.000,0,58.14465,8.009036,-8.4,0.0,0.93,10,131.31,1,0.365690,0.858366,0.002066,0.078798,0.043814,0.000168,-0.002054,0.000137,0.001536,0.000011,22.000000
4463,270426,172350.000,0,58.14463,8.009044,-8.8,0.0,1.0,9,131.31,1,0.382763,0.856825,0.002291,0.113132,0.058225,-0.001301,0.001300,0.001365,0.001437,0.000010,20.000000
4477,270426,172405.000,0,58.14464,8.00905,-9.5,0.0,0.93,10,143.2,1,0.387160,0.828954,0.001647,0.044417,0.107521,0.001135,-0.000116,0.001188,0.003477,0.000028,20.000000
4485,270426,172419.000,0,58.14465,8.009042,-10.6,1.65,0.93,10,155.46,1,0.386253,0.841941,0.003650,0.137963,0.103688,-0.000823,0.003068,0.001798,0.003356,0.000025,23.000000
4499,270426,172420.000,0,58.14465,8.009035,3.0,0.0,0.94,10,17.93,1,0.394171,0.847995,0.001276,0.039053,0.039751,-0.001240,0.000016,-0.000301,0.001082,0.000007,19.000000
4519,270426,172449.000,0,58.14466,8.00905,-11.3,0.0,0.93,10,42.07,1,0.335181,0.839252,0.000800,0.085932,0.064995,-0.000402,-0.000549,0.000421,0.001972,0.000012,29.000001
4533,270426,172504.000,0,58.14461,8.009078,-11.2,0.0,0.93,10,346.96,1,0.393997,0.788779,0.007004,0.147764,0.453894,-0.000371,0.004501,0.005353,0.017835,0.000428,16.000000
4548,270426,172519.000,0,58.14462,8.009111,-10.2,1.62,1.14,9,250.99,1,0.438822,0.796159,0.004034,0.042620,0.313534,-0.001409,0.003754,-0.000442,0.015033,0.000385,18.000001
4581,270426,172549.000,0,58.14464,8.008978,-9.2,0.0,1.14,9,323.6,1,0.440803,0.776199,0.001083,0.053607,0.040809,0.000092,0.000291,0.001039,0.001524,0.000009,22.000000
4594,270426,172604.000,0,58.14464,8.008978,-9.2,0.0,1.14,9,323.6,1,0.449809,0.760135,0.001860,0.111207,0.075758,0.000676,0.000495,0.001660,0.002538,0.000021,25.000000
4608,270426,172619.000,0,58.14463,8.009013,-9.8,1.5,1.14,9,283.72,1,0.458972,0.764375,0.002387,0.080435,0.184416,0.001111,-0.001737,0.001201,0.010524,0.000157,27.000000
4622,270426,172634.000,0,58.14466,8.009051,-9.2,1.1,1.14,9,249.46,1,0.449850,0.775817,0.002118,0.055843,0.068856,0.000302,0.001371,-0.001586,0.002417,0.000020,26.000001
4643,270426,172649.000,0,58.14466,8.009067,-9.4,1.91,0.93,10,5.61,1,-4.132162,1.339481,0.127922,1.904728,1.484822,0.028403,-0.094858,0.080989,0.075056,0.039181,16.000000
4657,270426,172704.000,0,58.14478,8.00909,-10.5,4.25,0.93,10,5.61,1,-5.002893,4.710224,0.227685,1.209625,1.771309,0.002469,-0.051714,-0.221721,0.053532,0.038039,13.000001
4664,270426,172718.000,0,58.14494,8.009028,-8.9,4.13,0.93,10,2.4,1,-5.084127,4.533710,0.100806,1.552073,1.517895,0.055289,-0.058412,0.060769,0.068958,0.035697,14.000000
4704,270426,172749.000,0,58.14515,8.009161,-0.5,2.86,1.5,7,7.62,1,-7.025797,-4.522079,0.140212,2.204141,2.231228,-0.088841,0.095933,-0.050632,0.078133,0.044808,16.000000
4718,270426,172804.000,0,58.14544,8.009095,-3.1,5.55,1.1,9,334.98,1,-6.703268,-6.274018,0.192318,1.400748,2.442154,0.078829,0.027963,0.173177,0.074958,0.040393,16.000000
4738,270426,172834.000,0,58.14569,8.009038,-5.6,2.09,1.07,9,348.247,1,-8.326105,-6.265194,0.264823,4.679966,2.677449,-0.007895,-0.126092,-0.232744,0.076610,0.049156,15.000000
4746,270426,172835.000,0,58.14569,8.009042,-6.4,2.08,1.07,9,313.93,1,-6.775954,-4.398177,0.255247,2.596176,2.123657,-0.159336,0.148149,0.133472,0.081227,0.058540,15.000000
4754,270426,172849.000,0,58.14591,8.008865,-7.1,3.15,1.07,9,353.54,1,-7.405432,-0.361487,0.211263,3.417794,2.096041,-0.200494,-0.065669,-0.011036,0.077613,0.059872,13.000001
4768,270426,172904.000,0,58.14604,8.008636,-7.2,4.08,1.34,8,349.83,1,-6.755030,3.252200,0.097850,1.926455,1.544622,0.019567,-0.084869,0.044597,0.066181,0.039694,15.000000
4783,270426,172919.000,0,58.14613,8.008558,-6.3,3.66,1.15,9,16.98,1,-4.772509,4.559138,0.247269,8.138777,2.060791,0.111366,-0.059235,-0.212675,0.073808,0.038127,16.000000
4797,270426,172920.000,0,58.14614,8.00855,-6.3,3.59,1.15,9,16.98,1,-4.668245,4.506759,0.215488,2.679049,2.061380,0.009490,0.001374,0.215275,0.062260,0.043428,15.000000
4811,270426,172935.000,0,58.14631,8.008341,-9.4,4.82,1.15,9,315.32,1,-5.362445,3.292707,0.096648,5.043265,2.042859,0.017929,-0.094970,-0.000087,0.060192,0.040127,16.000000
4831,270426,173004.000,0,58.14653,8.008007,-10.9,2.12,0.93,10,326.01,1,-6.719656,1.023785,0.198270,4.900117,1.825948,-0.029555,-0.053045,-0.188742,0.060345,0.043074,16.000000
4845,270426,173019.000,0,58.14672,8.007792,-9.6,2.7,1.07,9,319.68,1,-6.299197,0.632246,0.289154,4.095393,2.076283,0.050393,0.081628,-0.272778,0.077072,0.048352,15.000000
4859,270426,173034.000,0,58.14691,8.007644,-1.7,4.25,1.12,8,343.15,1,-6.281280,0.711280,0.193301,4.577177,2.022332,-0.108539,0.141989,0.073645,0.074994,0.046473,15.000000
4873,270426,173049.000,0,58.14704,8.007372,8.7,4.15,1.59,5,322.45,1,-5.365512,2.432992,0.121844,4.016788,2.130761,0.046634,-0.005891,-0.112412,0.070240,0.041759,16.000000
4887,270426,173050.000,0,58.14703,8.007352,9.5,4.68,1.42,6,322.45,1,-4.066189,2.892252,0.145656,4.316043,1.743373,-0.074810,-0.060194,0.109526,0.072547,0.040088,16.000000
4908,270426,173120.000,0,58.14735,8.006931,31.8,3.89,1.51,7,316.82,1,-4.665905,2.684051,0.339280,5.678081,1.930100,-0.062959,0.252080,0.218181,0.074245,0.046611,16.000000
4922,270426,173135.000,0,58.14744,8.006709,41.6,3.76,1.3,8,319.39,1,-4.195361,2.793300,0.143135,7.294604,2.271714,0.027147,0.014481,0.139789,0.075365,0.047798,16.000000
4936,270426,173136.000,0,58.14745,8.0067,42.3,4.3522,1.36,7,261.06,1,-4.445795,2.772288,0.211865,2.256842,1.881846,-0.022852,0.019122,-0.209759,0.065440,0.039811,14.000000
4943,270426,173151.000,0,58.14765,8.006407,52.6,4.35,1.63,6,261.06,1,-3.648164,2.325942,0.557548,8.314003,2.114709,0.118451,0.311710,0.446840,0.081618,0.044387,14.000000
4957,270426,173207.000,0,58.14794,8.005995,65.5,5.85,3.27,4,349.64,1,-4.289191,2.625996,0.207755,2.917935,1.918246,-0.158790,-0.076712,0.109833,0.084003,0.040767,16.000000
4965,270426,173208.000,0,58.14795,8.00599,66.4,5.74,3.27,4,333.75,1,-3.646715,2.888793,0.328418,3.675533,2.017367,-0.032418,0.184760,0.269576,0.081520,0.044332,16.000000
4973,270426,173223.000,0,58.14794,8.005816,67.6,4.5,0.94,9,333.75,1,-4.250941,2.819238,0.241853,1.100084,2.124671,0.026684,-0.082984,-0.225598,0.073096,0.047382,14.000000
4987,270426,173224.000,0,58.14793,8.005815,67.7,4.16,0.95,8,333.75,1,-4.053582,2.724335,0.086319,6.996853,1.985629,-0.027310,-0.059028,0.056754,0.078187,0.043477,16.000000
4994,270426,173239.000,0,58.14788,8.005459,63.3,6.05604,1.52,7,268.94,1,-4.027324,2.114594,0.127780,6.915121,2.058725,0.078504,0.091437,-0.042475,0.071876,0.045148,13.000001
5002,270426,173254.000,0,58.14802,8.005127,71.0,6.05604,1.34,8,268.94,1,-3.680478,2.037102,0.238270,2.178696,2.064440,-0.050887,0.097212,0.211501,0.064381,0.045193,15.000000
5022,270426,173310.000,0,58.14814,8.004749,82.40001,3.86,1.35,8,260.28,1,-3.346109,2.482026,0.089952,4.086518,1.760926,0.039112,-0.076715,0.026009,0.074275,0.045425,18.000001
5036,270426,173325.000,0,58.14811,8.004686,77.6,2.42,0.98,9,353.67,1,-2.745367,1.837749,0.335528,1.062793,1.956456,0.013902,-0.005649,-0.335192,0.087982,0.049128,16.000000
5050,270426,173340.000,0,58.14846,8.004676,63.5,4.3,0.94,9,322.98,1,-2.563237,1.847467,0.204004,2.438610,1.844301,-0.063317,-0.092205,-0.170607,0.062623,0.050896,12.000000
5065,270426,173355.000,0,58.14853,8.004454,56.8,1.44,1.11,8,322.98,1,-1.921752,3.154952,0.348661,2.657486,2.259101,-0.007534,-0.035716,-0.346745,0.088754,0.047167,14.000000
5072,270426,173356.000,0,58.14853,8.004449,56.8,1.48,1.11,8,284.9,1,-1.965903,2.692699,0.227757,2.402816,2.468242,-0.098464,0.009849,0.205137,0.097128,0.054982,16.000000
5086,270426,173411.000,0,58.14874,8.004062,54.1,3.68,1.31,7,324.5,1,-2.256172,1.911234,0.165261,5.080997,1.951192,-0.013529,0.148150,0.071972,0.065113,0.035327,16.000000
5113,270426,173443.000,0,58.14844,8.003373,28.2,5.89,1.08,6,230.75,1,-5.618898,0.279035,0.200851,2.144027,2.052119,-0.023482,-0.028169,-0.197474,0.068036,0.036693,16.000000
5127,270426,173459.000,0,58.14834,8.002978,16.7,6.45,0.9599999,8,236.07,1,-4.996249,-0.192728,0.197935,0.493054,1.447678,0.114476,0.059716,-0.150025,0.063614,0.024416,12.000000
5141,270426,173515.000,0,58.14825,8.002805,10.2,5.66,1.12,7,221.23,1,-3.472147,1.717974,0.248719,1.971980,2.082676,-0.059034,-0.045925,-0.237207,0.070666,0.048980,18.000001
5155,270426,173516.000,0,58.14824,8.002807,10.3,8.32,1.16,6,230.36,1,-3.321965,3.472496,0.129341,6.249203,2.116731,-0.069977,0.034229,-0.103251,0.071762,0.047569,20.000000
5169,270426,173532.000,0,58.14804,8.002501,11.6,8.41,0.9599999,8,223.78,1,-3.152595,2.896702,0.148329,0.730099,2.514409,-0.116266,-0.002127,-0.092083,0.085539,0.048623,17.000000
5177,270426,173547.000,0,58.14791,8.002272,18.8,8.22,1.13,7,223.78,1,-2.433882,2.092471,0.332998,2.876065,2.447480,0.167556,0.139087,0.251928,0.088073,0.057724,15.000000
5192,270426,173602.000,0,58.14771,8.002169,26.0,9.71,1.17,9,223.18,1,-2.659024,2.030203,0.110917,4.209805,2.171132,-0.029545,-0.049591,0.094712,0.080118,0.053294,15.000000
5199,270426,173603.000,0,58.1477,8.002147,26.4,9.98,1.17,9,227.41,1,-3.682055,2.112412,0.126724,3.681658,2.350596,-0.025830,-0.105877,0.064666,0.075308,0.053952,16.000000
5226,270426,173634.000,0,58.14735,8.001822,40.7,5.31,1.53,6,160.92,1,-4.445667,-1.099379,0.168439,1.459210,1.798780,-0.018704,0.014547,-0.166764,0.083971,0.046538,16.000000
5240,270426,173650.000,0,58.14728,8.001634,37.1,6.82,1.05,7,165.31,1,-4.303040,-1.217766,0.107514,3.757119,1.795124,-0.041288,-0.090736,0.040268,0.065989,0.039719,15.000000
5248,270426,173651.000,0,58.14732,8.001551,35.8,6.18,1.05,7,256.96,1,-4.483087,-1.252601,0.132585,1.459169,1.768150,-0.010570,0.018674,-0.130837,0.068537,0.037332,17.000000
5255,270426,173706.000,0,58.1472,8.001079,27.7,6.3,0.9700001,9,212.83,1,-4.830392,-0.886437,0.175929,4.405032,1.765228,-0.034989,0.015949,0.171676,0.068528,0.035792,16.000000
5269,270426,173721.000,0,58.1471,8.001013,19.7,6.42,1.08,9,212.83,1,-5.745261,0.041359,0.274846,2.540554,1.954234,-0.025378,-0.057773,-0.267504,0.067431,0.045602,16.000000
5277,270426,173722.000,0,58.1471,8.001003,19.3,3.09,1.08,9,233.32,1,-5.859975,0.491458,0.223415,0.714262,1.983239,0.111194,-0.026593,0.191946,0.063738,0.045722,16.000000
5291,270426,173737.000,0,58.14697,8.000817,11.0,3.95,0.93,10,223.5,1,-3.988820,1.498036,0.285569,2.769522,1.909905,0.020438,-0.032216,-0.283009,0.068746,0.050359,16.000000
5305,270426,173752.000,0,58.14684,8.000568,5.2,4.04,1.39,7,231.49,1,-2.191790,2.536009,0.161122,5.203025,2.277379,-0.108365,-0.044501,-0.110621,0.088943,0.051372,16.000000
5319,270426,173808.000,0,58.14672,8.000219,-0.5,5.24,1.09,6,235.26,1,-3.196975,2.237672,0.185795,3.282834,1.851953,0.023511,-0.087030,0.162459,0.068532,0.039996,17.000000
5333,270426,173824.000,0,58.14662,8.00004,-2.8,5.3,1.85,5,228.84,1,-5.089500,1.938475,0.442796,7.967495,1.839323,0.005139,0.286546,0.337540,0.075384,0.038320,14.000000
5341,270426,173825.000,0,58.14662,8.000044,-2.8,5.07,1.85,5,268.01,1,-5.423097,1.631989,0.141794,3.284776,2.496098,0.066963,-0.071613,0.102436,0.081144,0.038572,14.000000
5355,270426,173841.000,0,58.14652,7.999744,-2.8,3.96,6.86,3,254.93,1,-4.454985,0.620034,0.270887,1.817780,1.028460,0.028120,0.007695,0.269314,0.049734,0.024096,13.000001
5368,270426,173857.000,0,58.14639,7.999732,-3.2,4.18,1.86,5,258.35,1,-4.835047,2.265100,0.137204,1.597881,1.205199,0.017973,-0.083895,0.107068,0.060802,0.033858,14.000000
5382,270426,173913.000,0,58.14631,7.99953,-7.2,3.53,2.6,4,258.35,1,-5.325831,2.853832,0.063207,2.070893,1.753881,-0.031002,0.051799,-0.018733,0.087058,0.034180,16.000000
5390,270426,173914.000,0,58.14631,7.999522,-7.4,3.25,1.86,5,200.05,1,-5.937681,3.110901,0.124867,1.731586,1.865492,0.058234,0.089608,-0.064583,0.073600,0.032241,14.000000
5404,270426,173930.000,0,58.14619,7.99939,-10.1,4.98,1.09,6,81.58999,1,-5.784571,3.621434,0.059758,0.244171,0.620091,0.053574,0.022228,-0.014380,0.043980,0.004787,12.000000
5418,270426,173945.000,0,58.14615,7.999207,-10.6,1.44,1.4,7,107.54,1,-8.482550,2.906845,0.099065,3.345181,1.820673,0.010175,-0.074376,-0.064642,0.086361,0.036386,16.000000
5445,270426,174015.000,0,58.14616,7.998927,-6.4,4.43,1.02,8,150.71,1,-5.855262,-0.075435,0.184380,1.999501,0.519812,0.000982,-0.013949,0.183849,0.036374,0.004891,19.000000
5465,270426,174031.000,0,58.14608,7.998809,4.1,5.06,1.09,8,201.61,1,-5.741589,1.750166,0.153062,0.964664,1.859172,-0.056168,0.034258,-0.138201,0.066405,0.035846,16.000000
5479,270426,174047.000,0,58.14613,7.998609,17.3,4.8,1.63,5,328.46,1,-5.861030,3.360505,0.147913,2.410909,1.913764,-0.041608,-0.059830,0.128715,0.061227,0.027987,16.000000
5493,270426,174103.000,0,58.14634,7.998172,25.1,8.55,1.63,5,299.0,1,-6.555096,1.893773,0.151950,2.464347,1.952131,-0.045558,0.020632,-0.143483,0.073996,0.030337,14.000000
5501,270426,174104.000,0,58.14636,7.998157,25.4,8.72,1.64,5,287.07,1,-6.382995,2.121790,0.207605,2.755629,1.921449,-0.030030,0.021675,-0.204274,0.078932,0.031572,14.000000
5515,270426,174120.000,0,58.14643,7.998045,24.4,6.37,1.64,5,261.65,1,-6.985811,1.985150,0.090638,9.678876,2.232887,-0.003437,0.031063,-0.085080,0.075154,0.041887,16.000000
5529,270426,174136.000,0,58.14625,7.998029,12.5,7.46,1.91,5,152.11,1,-6.484115,0.858844,0.114869,1.837429,2.673262,-0.008533,-0.086300,0.075328,0.092392,0.064595,15.000000
5543,270426,174152.000,0,58.1462,7.997788,-1.4,2.55576,3.57,4,192.25,1,-7.920296,-3.204398,0.090818,3.746237,1.971211,-0.011119,-0.086740,-0.024504,0.069018,0.050575,13.000001
5552,270426,174208.000,0,58.14604,7.997356,-14.2,6.62,1.92,5,214.21,1,-7.436906,-3.312307,0.157033,4.455484,2.325459,-0.030007,0.023229,0.152379,0.076873,0.051728,13.000001
5566,270426,174209.000,0,58.14601,7.997407,-14.6,6.73,1.92,5,214.21,1,-8.602657,-3.907394,0.177446,2.374506,1.914870,0.020214,0.031026,-0.173539,0.100566,0.052500,18.000001
5586,270426,174226.000,0,58.14596,7.99716,-23.7,11.59,2.12,7,152.66,1,-12.370508,-2.388824,0.059882,3.388757,2.194138,0.033794,0.034595,0.035313,0.097315,0.052131,19.000000
5613,270426,174258.000,0,58.14535,7.997077,-38.4,13.36,4.33,5,170.09,1,-11.057833,-2.745777,0.112479,1.168100,1.942230,-0.025383,0.058232,-0.092824,0.084781,0.034698,15.000000
5634,270426,174330.000,0,58.14604,7.996485,-57.6,4.67,1.49,6,19.08,1,-7.613500,-0.013073,0.183566,1.556442,2.041764,-0.061809,0.017855,0.171923,0.073353,0.047788,15.000000
5648,270426,174331.000,0,58.14605,7.996463,-58.4,4.84,1.49,6,19.08,1,-7.966000,0.944587,0.189099,2.966504,2.034902,-0.098579,-0.149290,0.061262,0.100252,0.067668,13.000001
5662,270426,174347.000,0,58.14592,7.995768,-58.0,3.13,1.25,7,9.15,1,-8.469840,2.203622,0.258112,2.752337,2.237390,-0.049452,-0.029633,-0.251591,0.079784,0.047577,16.000000
5676,270426,174403.000,0,58.14601,7.995742,-46.1,1.65,0.9599999,9,327.42,1,-4.473480,-2.026063,0.087033,0.151260,1.329500,0.062087,0.060017,0.010856,0.077634,0.031551,6.000000
5684,270426,174418.000,0,58.14608,7.995852,-39.1,1.47,1.28,8,327.42,1,-3.106488,-3.350015,0.055537,0.074294,0.267322,0.038962,0.038773,0.007938,0.029616,0.010251,0.000000
5699,270426,174419.000,0,58.14608,7.995853,-38.9,1.55,1.28,8,193.51,1,-1.673513,-4.772894,0.020737,0.046811,0.049995,0.014082,0.014440,0.004819,0.010447,0.001389,2.000000
5707,270426,174434.000,0,58.14628,7.995844,-26.7,3.40768,1.5,6,314.51,1,-1.361152,-5.095759,0.010490,0.102179,0.050476,0.008943,0.005411,0.000891,0.006628,0.000527,4.000000
5721,270426,174449.000,0,58.14632,7.995702,-19.6,3.56,1.5,6,314.51,1,-1.035892,-5.356708,0.005828,0.074392,0.192142,0.004494,0.003352,0.001592,0.007416,0.000168,19.000000
5729,270426,174504.000,0,58.14626,7.995667,-18.2,1.96,1.55,6,354.91,1,-0.951220,-5.440930,0.004862,0.093068,0.199761,0.003991,-0.002552,-0.001094,0.007678,0.000139,25.000000
5743,270426,174505.000,0,58.14626,7.995675,-18.1,1.85,1.55,6,354.91,1,-0.866632,-5.565217,0.003649,0.082089,0.078125,-0.000697,0.003063,-0.001857,0.002360,0.000028,28.000000
5750,270426,174520.000,0,58.14623,7.995724,-16.1,1.61,1.65,5,354.91,1,-0.846705,-5.535794,0.002434,0.066661,0.114398,0.001071,0.002139,0.000452,0.004335,0.000037,22.000000
5771,270426,174536.000,0,58.14619,7.995692,-15.8,0.0,1.56,6,217.8,1,-0.809900,-5.515101,0.004691,0.083719,0.092385,0.001353,0.004443,0.000664,0.003689,0.000042,20.000000
5785,270426,174551.000,0,58.14619,7.995729,-15.0,1.0,1.56,6,174.39,1,-3.231879,-2.434206,0.207719,3.597657,1.352502,-0.178057,-0.027938,-0.103258,0.137764,0.032732,23.000000
5793,270426,174606.000,0,58.1462,7.995762,-12.7,3.81,1.34,7,29.85,1,-4.217754,0.344887,0.273905,5.332574,1.845135,-0.016519,-0.050510,-0.268700,0.098307,0.052768,13.000001
5813,270426,174622.000,0,58.14628,7.995902,-13.0,2.55,1.43,6,65.19001,1,-3.470497,2.317453,0.132519,3.444271,1.485585,-0.079327,-0.104119,0.020681,0.061544,0.026190,11.000000
5827,270426,174637.000,0,58.14634,7.995975,-14.5,2.8706,1.25,8,22.15,1,-3.336700,3.153673,0.101534,1.290103,1.607501,-0.058239,-0.079492,-0.024464,0.084739,0.032137,10.000000
5835,270426,174638.000,0,58.14635,7.995985,-13.6,2.9,1.25,8,43.75,1,-3.731990,3.139027,0.261119,13.752046,2.547713,0.250722,0.057781,-0.044536,0.085693,0.037698,14.000000
5849,270426,174653.000,0,58.14645,7.996152,-5.6,3.99,1.25,8,43.75,1,-7.215804,-0.560465,0.188418,8.539884,2.643768,0.123445,-0.012108,-0.141832,0.089441,0.066957,16.000000
5856,270426,174708.000,0,58.14665,7.996394,0.2,5.64,1.47,6,28.83,1,-8.167969,-3.892461,0.128431,7.903003,2.136838,0.110519,-0.022973,-0.061257,0.087629,0.063911,17.000000
5877,270426,174724.000,0,58.1468,7.996745,9.5,9.13,1.9,4,68.11,1,-10.903697,-5.728323,0.148642,7.328300,2.144892,0.035777,0.040872,-0.138362,0.084872,0.047421,18.000001
5884,270426,174739.000,0,58.14682,7.996974,17.8,5.04,1.34,7,28.23,1,-10.660164,-4.579962,0.274325,3.576319,2.611876,-0.023792,-0.106433,-0.251714,0.095858,0.054970,18.000001
5899,270426,174754.000,0,58.14707,7.997062,26.3,6.65,1.43,6,29.77,1,-10.412146,-2.380620,0.282827,1.082758,2.264535,-0.099659,-0.061227,-0.257508,0.078967,0.049418,13.000001
5906,270426,174755.000,0,58.1471,7.997035,27.2,6.7,1.43,6,5.11,1,-9.439123,-3.516777,0.051578,0.179256,2.142025,0.027714,0.041868,0.011802,0.093573,0.035126,15.000000
5927,270426,174811.000,0,58.14724,7.997189,31.0,3.17,2.88,4,77.88,1,-6.088725,-1.073874,0.218651,3.479593,1.642385,-0.029854,-0.004178,-0.216563,0.075406,0.020976,9.000000
5934,270426,174826.000,0,58.14727,7.996975,32.2,2.75,3.47,4,301.45,1,-5.654012,0.267876,0.148498,4.860982,2.096944,-0.079224,-0.001782,0.125587,0.077825,0.045677,13.000001
5948,270426,174841.000,0,58.14756,7.996413,37.1,3.56,1.34,7,301.45,1,-5.723239,1.210596,0.284946,3.508460,1.665697,0.015207,-0.084289,-0.271769,0.070605,0.038433,14.000000
5956,270426,174842.000,0,58.14755,7.996407,37.2,12.38,3.43,5,309.44,1,-5.598318,1.089142,0.213930,2.834288,1.905786,-0.116175,0.000050,0.179637,0.071459,0.043038,14.000000
5970,270426,174857.000,0,58.14756,7.996413,38.8,2.39,2.06,5,10.9,1,-5.094194,1.194305,0.146583,5.120861,1.945561,-0.038515,0.029611,-0.138298,0.078599,0.045911,16.000000
5978,270426,174912.000,0,58.14779,7.996167,49.4,3.63,1.48,7,334.52,1,-5.849493,1.031991,0.086536,4.020548,1.878288,-0.016821,-0.065253,0.054291,0.065489,0.046462,16.000000
5992,270426,174927.000,0,58.14785,7.995909,48.0,5.29,1.61,6,334.52,1,-6.281237,0.908147,0.155192,3.718380,1.933081,0.052268,0.137019,0.050778,0.074050,0.038882,16.000000
6012,270426,174943.000,0,58.14798,7.995844,62.7,4.23,2.85,4,337.54,1,-5.157344,0.171861,0.235761,1.279088,2.209576,0.055094,-0.021903,-0.228185,0.075892,0.040234,15.000000
6020,270426,174944.000,0,58.14799,7.995833,63.6,3.89,2.85,4,343.56,1,-5.451528,0.221847,0.095709,3.633324,2.045768,0.005805,-0.048510,0.082300,0.070307,0.033771,16.000000
6034,270426,174959.000,0,58.14814,7.995643,77.7,4.92632,2.85,4,317.62,1,-5.728860,1.687279,0.088491,2.898360,1.855391,-0.082577,-0.017977,-0.026238,0.051764,0.031210,14.000000
6041,270426,175014.000,0,58.14816,7.99524,87.6,4.95,1.76,5,342.28,1,-5.692079,1.346473,0.197256,1.473686,1.937017,0.133635,-0.101170,0.104001,0.062394,0.038419,14.000000
6055,270426,175015.000,0,58.14816,7.995212,88.2,5.98,1.34,6,292.02,1,-4.642205,0.888503,0.243821,2.660534,1.921276,-0.035942,-0.061111,0.233286,0.070209,0.048583,14.000000
6063,270426,175030.000,0,58.14756,7.994956,61.6,6.32,1.26,8,229.92,1,-3.800892,1.460434,0.089764,3.464737,2.155712,-0.030514,0.021587,-0.081612,0.079066,0.047989,16.000000
6077,270426,175045.000,0,58.14746,7.994627,46.9,5.44,1.34,6,193.63,1,-2.434811,2.146186,0.258809,1.250472,2.170349,0.024793,-0.102360,-0.236410,0.082788,0.044556,15.000000
6091,270426,175100.000,0,58.14748,7.994118,36.8,6.7598,1.3,7,275.73,1,-2.997725,3.260083,0.063631,4.898293,2.196421,-0.030188,-0.052047,0.020704,0.077296,0.045913,15.000000
6099,270426,175115.000,0,58.14739,7.993865,32.9,8.35,1.3,7,253.14,1,-3.444625,3.433062,0.157985,0.589086,1.948018,-0.071347,0.043860,-0.133959,0.068071,0.044523,17.000000
6113,270426,175116.000,0,58.14737,7.993854,32.5,8.46,1.26,8,253.14,1,-4.890511,3.418137,0.252395,1.718185,1.946401,0.018687,-0.111483,-0.225668,0.071276,0.039300,14.000000
6133,270426,175146.000,0,58.14716,7.993426,21.6,6.35,1.26,8,254.97,1,-5.374449,2.455595,0.271440,2.955114,1.971785,0.066572,0.048111,0.258714,0.073615,0.048409,18.000001
6147,270426,175147.000,0,58.14714,7.993411,21.6,5.99,1.26,8,254.97,1,-4.546983,1.899246,0.221018,6.486728,2.082090,0.089756,0.003891,-0.201935,0.075344,0.054168,16.000000
6155,270426,175202.000,0,58.14723,7.993238,20.9,4.27,1.76,5,343.67,1,-5.584477,1.270877,0.257017,2.559380,2.074133,0.074022,-0.110769,-0.219792,0.072389,0.049911,14.000000
6169,270426,175217.000,0,58.14732,7.993033,23.5,2.92,1.45,6,315.09,1,-6.505295,0.434936,0.288813,2.057104,2.357462,-0.083584,0.100449,0.257559,0.083015,0.048422,14.000000
6189,270426,175233.000,0,58.14739,7.992797,29.2,3.8892,1.35,7,338.49,1,-6.200347,-0.187249,0.264084,0.533586,2.721164,0.010749,0.069383,0.254579,0.081068,0.059337,15.000000
6209,270426,175249.000,0,58.14758,7.992747,26.0,3.36,1.4,6,103.54,1,-4.458727,2.661892,0.117516,3.273121,2.006553,-0.038176,-0.051054,-0.098722,0.074536,0.047393,14.000000
6217,270426,175304.000,0,58.14785,7.992902,13.3,2.86,1.58,5,39.32,1,-4.398008,2.183119,0.205799,1.445037,2.304981,-0.077966,-0.020856,0.189314,0.076032,0.044792,16.000000
6225,270426,175319.000,0,58.14791,7.993347,5.8,2.86,1.79,5,39.32,1,-4.230662,1.937245,0.227913,1.788177,2.133992,-0.015655,0.028756,0.225549,0.077675,0.039231,14.000000
6245,270426,175336.000,0,58.14806,7.993488,-3.7,3.26,1.26,8,72.35,1,-4.196453,1.734643,0.178778,4.059203,2.120394,0.099120,0.146045,0.028420,0.082300,0.042852,14.000000
6259,270426,175337.000,0,58.14806,7.99351,-4.0,4.08,1.26,8,67.5,1,-4.776659,1.764854,0.260013,3.118432,2.622663,-0.157011,-0.057190,-0.199208,0.074169,0.047939,16.000000
6273,270426,175353.000,0,58.14817,7.993812,-11.0,4.35,1.55,7,59.18,1,-5.437244,1.387409,0.297940,4.202178,2.169508,0.070182,0.011639,-0.289322,0.090520,0.048935,14.000000
6281,270426,175408.000,0,58.14825,7.994034,-21.9,4.28,1.26,8,59.18,1,-5.109267,1.141518,0.179557,2.437047,2.280015,-0.103587,-0.112058,-0.094622,0.084621,0.049395,15.000000
6301,270426,175424.000,0,58.14828,7.994273,-33.4,5.57,0.95,9,115.73,1,-6.032240,0.368274,0.140667,4.420135,2.113280,-0.088116,-0.092641,0.058654,0.094216,0.050022,14.000000
6309,270426,175439.000,0,58.14825,7.994393,-43.3,2.87,2.99,4,115.73,1,-5.810965,0.035266,0.560521,7.515563,2.144867,0.023503,0.198835,0.523542,0.103287,0.055179,18.000001
6317,270426,175440.000,0,58.14826,7.994387,-43.9,2.97,3.0,4,346.31,1,-5.377650,-0.001335,0.294036,2.643054,2.485857,0.010951,0.028287,-0.292468,0.092341,0.054835,18.000001
6337,270426,175512.000,0,58.14764,7.995285,-49.4,8.59,2.79,4,182.9,1,-5.276821,1.273777,0.195492,0.678381,2.323309,-0.031800,0.026763,0.191023,0.084100,0.047513,19.000000
6364,270426,175531.000,0,58.14809,7.995684,64.2,22.73,2.79,4,86.84,1,-3.703411,2.214945,0.131255,2.748696,1.972744,-0.033360,0.011587,-0.126415,0.083843,0.053866,16.000000
6378,270426,175547.000,0,58.14796,7.997177,79.3,29.33568,2.78,4,80.7,1,-4.322004,2.879754,0.108370,3.606397,2.324174,-0.056303,-0.077656,-0.050434,0.075419,0.049336,14.000000
6386,270426,175548.000,0,58.14795,7.997235,79.9,28.51,2.78,4,86.75,1,-4.434469,1.867309,0.199487,3.828959,2.577041,0.007948,-0.046085,0.193928,0.086680,0.049971,16.000000
6399,270426,175604.000,0,58.14796,7.99721,88.6,17.73,1.28,6,86.75,1,-5.440014,1.349074,0.222565,3.866384,2.015207,0.138911,-0.052710,-0.165712,0.076900,0.047247,16.000000
6413,270426,175620.000,0,58.14776,7.996356,91.1,3.36,1.08,7,146.95,1,-5.131789,-0.206540,0.219642,8.203278,2.394941,0.153939,-0.001600,-0.156662,0.071970,0.054154,20.000000
6421,270426,175635.000,0,58.14758,7.996463,85.1,2.96,2.54,5,146.95,1,-5.991555,-0.538598,0.274075,1.936195,2.366064,-0.090845,0.076503,-0.247005,0.083847,0.061233,17.000000
6429,270426,175636.000,0,58.14757,7.996512,84.00001,2.89,2.54,5,102.79,1,-7.756374,0.089085,0.322985,3.617656,2.457429,0.084907,-0.067895,-0.304138,0.088731,0.062736,15.000000
6453,270426,175709.000,0,58.14731,7.996985,81.6,3.74,3.62,3,129.73,1,-6.721958,0.928136,0.177618,5.141268,2.386468,0.075007,0.153208,0.049489,0.082293,0.046447,14.000000
6461,270426,175710.000,0,58.1473,7.99703,81.50001,3.8,3.62,3,128.32,1,-7.134329,0.245971,0.118136,4.644495,2.094648,0.037947,0.106594,0.033967,0.085097,0.051347,14.000000
6475,270426,175726.000,0,58.14718,7.996974,71.8,3.96,1.27,8,156.31,1,-6.870559,0.279682,0.273339,3.574862,1.973010,-0.117695,0.045415,0.242486,0.073018,0.044113,12.000000
6489,270426,175727.000,0,58.14718,7.996974,70.7,4.06,1.26,8,156.31,1,-7.143250,0.513982,0.257113,2.681463,2.046646,-0.056642,-0.051855,0.245377,0.072732,0.042557,13.000001
6497,270426,175742.000,0,58.14704,7.997353,59.8,5.64,1.26,8,128.96,1,-6.509979,0.690569,0.217768,2.928882,2.744599,-0.042216,0.034086,-0.210900,0.087629,0.044100,13.000001
6504,270426,175757.000,0,58.14683,7.997642,63.9,7.24,1.53,7,128.96,1,-5.697914,0.199684,0.051684,1.755422,2.478830,0.040848,0.020885,0.023802,0.097571,0.043487,14.000000
6512,270426,175758.000,0,58.14681,7.997653,63.9,7.66,1.53,7,159.9,1,-6.747375,-0.623083,0.359146,7.251244,2.092779,-0.052394,0.102510,0.340195,0.096068,0.052041,14.000000
6539,270426,175829.000,0,58.1468,7.998044,67.4,1.89,1.59,6,30.0,1,-3.225356,-0.321451,0.266474,4.057976,2.334313,-0.080310,0.179543,0.179785,0.088541,0.038649,10.000000
6546,270426,175830.000,0,58.1468,7.998048,67.5,2.01,1.59,6,325.65,1,-2.737982,-0.496685,0.100318,1.638146,1.661491,-0.013631,0.013611,-0.098451,0.067592,0.032097,12.000000
6573,270426,175901.000,0,58.14692,7.997665,57.9,5.15,1.52,7,68.01,1,-6.645530,-1.567850,0.019175,0.040894,0.048838,0.010541,-0.015955,0.001406,0.009304,0.001136,14.000000
6587,270426,175917.000,0,58.1469,7.997625,57.9,2.76,1.52,7,48.68,1,-7.194098,-1.884603,0.007180,0.058442,0.037588,0.003720,-0.006066,-0.000958,0.003585,0.000151,20.000000
6601,270426,175933.000,0,58.14697,7.99763,45.8,3.99,1.61,6,16.41,1,-7.795544,0.153495,0.072321,1.264274,0.680113,-0.000788,-0.072313,-0.000740,0.125718,0.020540,19.000000
6621,270426,175949.000,0,58.14687,7.997689,35.8,2.31,1.61,6,238.33,1,-12.307479,7.127166,0.286262,2.034031,1.873817,-0.263772,-0.037446,0.104730,0.086344,0.050995,16.000000
6635,270426,180005.000,0,58.14678,7.998095,35.2,4.69,1.52,7,32.31,1,-9.947336,6.205486,0.271114,2.802715,1.945840,0.049868,-0.023594,-0.265442,0.074452,0.040009,17.000000
6643,270426,180006.000,0,58.14681,7.998071,35.3,5.01892,1.52,7,5.23,1,-10.818895,6.233160,0.260678,3.970488,2.203859,0.061398,-0.049623,-0.248437,0.074723,0.041444,18.000001
6651,270426,180021.000,0,58.1467,7.998357,31.3,5.01892,1.14,8,5.23,1,-9.919249,5.009574,0.119844,3.669159,2.284166,0.060021,-0.043399,-0.094215,0.077560,0.050490,16.000000
6671,270426,180037.000,0,58.14689,7.998507,24.1,4.83,1.35,7,134.33,1,-6.063080,4.114139,0.159069,3.032928,2.394145,0.074356,0.119947,-0.073396,0.099370,0.048445,9.000000
6685,270426,180053.000,0,58.1471,7.998621,24.4,7.21,1.35,7,17.0,1,-3.350374,3.017682,0.167081,2.257321,1.569471,0.165346,0.017855,-0.016056,0.078501,0.021227,22.000000
6699,270426,180109.000,0,58.14707,7.998412,17.0,2.0,1.55,4,340.59,1,-3.908899,1.455503,0.056744,0.617229,0.993931,0.046511,-0.032483,-0.001238,0.050970,0.007600,18.000001
6707,270426,180110.000,0,58.14706,7.998415,16.7,2.11,1.55,4,239.52,1,-3.582443,1.659651,0.017707,0.329957,0.580491,0.001616,0.017407,0.002816,0.021517,0.001536,22.000000
6721,270426,180126.000,0,58.14697,7.998435,6.2,2.52,1.33,6,239.52,1,-3.029092,1.239391,0.025070,1.255643,0.630640,0.001501,0.023038,-0.009773,0.032859,0.003719,23.000000
6742,270426,180158.000,0,58.14703,7.99846,-18.0,2.82,1.02,6,151.69,1,-3.766210,0.877397,0.162600,5.804638,1.350087,-0.060766,0.140013,0.056059,0.043596,0.004184,23.000000
6762,270426,180215.000,0,58.14692,7.998389,-28.0,5.44,1.83,3,166.65,1,-3.252410,1.527498,0.044612,0.896638,0.219919,-0.008266,0.033342,0.028463,0.012036,0.001769,14.000000
6776,270426,180231.000,0,58.14696,7.99829,-40.2,5.49,1.54,4,168.9,1,-3.552816,2.053087,0.005600,0.368319,0.282569,-0.004344,0.000042,-0.003535,0.011104,0.000663,24.000001
6784,270426,180232.000,0,58.14697,7.998282,-41.1,2.71,1.54,4,351.53,1,-3.715695,2.198609,0.013680,0.117685,0.246070,-0.005321,-0.011951,0.004000,0.007486,0.000256,24.000001
6798,270426,180248.000,0,58.14699,7.998277,-47.4,0.0,1.49,5,170.44,1,-6.540440,-0.295888,0.009178,0.323157,0.815049,0.001164,-0.004586,0.007864,0.052641,0.009586,18.000001
6831,270426,180320.000,0,58.14696,7.998339,-40.0,0.0,1.43,5,143.41,1,-6.682267,2.820749,0.030895,0.708811,0.321513,-0.015912,0.014034,0.022458,0.010168,0.000913,22.000000
6845,270426,180335.000,0,58.14699,7.998332,-33.5,1.84,1.0,7,298.01,1,-6.518867,3.310208,0.010069,0.149298,0.444573,0.000763,0.010038,0.000219,0.020195,0.001317,23.000000
6866,270426,180351.000,0,58.14699,7.998322,-28.9,2.26,1.0,7,174.57,1,-6.035876,3.263173,0.026269,0.963483,0.263920,0.003770,0.024867,-0.007580,0.008367,0.000418,21.000001
6880,270426,180406.000,0,58.147,7.998287,-25.9,3.32,0.99,8,187.14,1,-5.389553,3.209620,0.014468,0.292228,0.432082,-0.010817,0.006189,-0.007350,0.029059,0.002277,22.000000
6894,270426,180421.000,0,58.14702,7.998267,-22.1,1.65,0.94,9,217.19,1,-5.287945,3.406296,0.025262,0.623483,0.458880,0.005161,0.001557,0.024680,0.018449,0.000853,25.000000
6908,270426,180436.000,0,58.14699,7.998366,-22.0,1.65,1.32,6,217.19,1,-5.707131,2.822854,0.026299,0.697876,0.285480,-0.010208,-0.018172,-0.016038,0.009930,0.000576,27.000000
6916,270426,180451.000,0,58.14702,7.998339,-18.6,1.45,1.26,8,147.83,1,-5.419238,2.476231,0.027063,0.531340,0.418768,0.006610,0.014901,0.021603,0.013678,0.000790,26.000001
6930,270426,180452.000,0,58.14702,7.998335,-18.4,0.0,1.26,8,274.97,1,-5.100537,2.789138,0.004589,0.771915,0.378749,0.001443,-0.004355,-0.000096,0.016039,0.001411,24.000001
6937,270426,180507.000,0,58.14702,7.99838,-15.4,0.0,1.35,7,208.61,1,-5.642663,2.455291,0.022505,0.433337,0.337670,0.010419,-0.017124,-0.010231,0.015271,0.001389,22.000000
6951,270426,180522.000,0,58.14702,7.998376,-15.4,0.0,1.35,7,208.61,1,-5.167284,1.025327,0.059730,0.673679,0.845330,0.051495,0.029340,-0.007423,0.038717,0.003840,26.000001
6972,270426,180538.000,0,58.147,7.99838,-15.2,2.81,1.35,7,108.45,1,-3.401158,0.114844,0.018473,0.523867,0.501380,0.006351,-0.012181,-0.012351,0.016968,0.001369,26.000001
6986,270426,180553.000,0,58.14703,7.998327,-13.2,1.45,0.99,8,133.96,1,-2.701777,0.020239,0.017361,0.140706,0.204674,0.015223,-0.000227,-0.008342,0.007812,0.000472,25.000000
7000,270426,180608.000,0,58.14703,7.998313,-13.2,0.0,1.35,7,133.96,1,-2.528077,-0.394709,0.028686,0.413246,0.479290,0.001760,-0.028631,-0.000256,0.039146,0.002797,18.000001
7007,270426,180623.000,0,58.14703,7.998313,-13.2,0.0,1.26,8,55.94,1,-2.865299,-0.276846,0.002966,0.413655,0.753904,-0.001798,-0.002348,-0.000223,0.041499,0.004156,20.000000
7022,270426,180638.000,0,58.14702,7.998298,-15.4,2.12,1.26,8,55.94,1,-3.758764,-0.875093,0.027749,0.740893,0.688031,-0.000825,-0.023886,0.014099,0.029794,0.002798,20.000000
7036,270426,180639.000,0,58.14701,7.998297,-15.7,2.21,1.35,7,55.94,1,-3.484269,-0.199807,0.047473,0.675526,0.874083,-0.037779,0.007770,0.027678,0.034963,0.004191,26.000001
7044,270426,180654.000,0,58.14696,7.998361,-17.5,1.78,1.35,7,113.57,1,-3.168437,0.603909,0.028011,0.298676,0.625545,-0.020862,0.018658,-0.001129,0.023867,0.002967,22.000000
7058,270426,180709.000,0,58.14696,7.998371,-16.6,0.0,1.26,8,113.57,1,-2.738385,1.224089,0.012541,0.173513,0.300201,-0.007210,0.003953,-0.009469,0.012026,0.000574,27.000000
7072,270426,180724.000,0,58.14703,7.998361,-10.5,1.66,1.26,8,198.94,1,-2.029845,1.972193,0.025045,0.309360,0.285208,0.003643,-0.022901,0.009461,0.016625,0.001351,26.000001
7086,270426,180739.000,0,58.14697,7.99848,-8.8,0.0,1.35,7,327.01,1,-1.997762,2.602871,0.050284,0.833076,0.606681,-0.028464,-0.003062,0.041340,0.018124,0.001859,24.000001
7106,270426,180755.000,0,58.147,7.998467,-8.2,1.51,1.37,6,323.7,1,-2.554364,1.589990,0.054502,0.413371,0.438342,0.041144,-0.020820,0.029054,0.032377,0.002506,26.000001
7121,270426,180810.000,0,58.14703,7.998324,-5.3,1.51,1.35,7,323.7,1,-2.551077,0.931323,0.042258,0.408054,0.523883,-0.016994,-0.038176,-0.006284,0.018893,0.002423,23.000000
7141,270426,180826.000,0,58.14702,7.998334,-1.9,0.0,1.25,8,6.8,1,-3.325273,-0.089750,0.042015,0.246547,0.408638,0.024433,-0.032112,-0.011710,0.016191,0.001579,23.000000
7175,270426,180911.000,0,58.14699,7.998315,1.3,2.9,1.39,6,6.8,1,-17.400865,-5.014216,0.184713,1.592689,2.088900,0.042565,0.161089,0.079734,0.251941,0.135475,10.000000
7202,270426,180928.000,0,58.1471,7.998903,-8.9,8.29,3.5,3,132.94,1,-14.427072,-1.046338,0.225384,3.083408,1.998207,-0.135251,0.165853,-0.070696,0.157181,0.057035,17.000000
7209,270426,180944.000,0,58.14836,8.001391,-9.3,47.66,3.51,3,132.94,1,-8.217591,-3.217956,0.282943,4.468362,3.097167,0.093142,0.214781,0.158905,0.161040,0.093753,15.000000
7217,270426,180945.000,0,58.14843,8.001585,-9.5,45.23,3.51,3,46.25,1,-1.651644,-0.421499,0.218121,0.160219,3.154294,-0.132353,0.172696,-0.015348,0.071916,0.076707,8.000000
7231,270426,181000.000,0,58.14884,8.002395,-12.4,3.83,1.52,7,46.25,1,0.280579,0.952902,0.344829,2.639198,1.249049,0.343882,0.019183,0.016864,0.073691,0.025156,6.000000
7239,270426,181015.000,0,58.14889,8.002254,-14.1,2.29,1.67,6,56.33,1,-1.014217,0.048687,0.139844,1.232808,1.310835,0.118733,-0.072970,-0.011587,0.090432,0.027533,14.000000
7253,270426,181016.000,0,58.14889,8.002269,-14.2,3.57,1.53,7,56.33,1,-0.273084,-4.616490,0.051147,1.263045,0.527275,-0.019934,0.043100,0.019002,0.045553,0.013772,21.000001
7261,270426,181031.000,0,58.14913,8.00305,-14.5,15.96,1.77,5,57.66,1,2.391344,-4.017330,0.041692,0.150546,0.502898,-0.019568,0.036778,0.001626,0.044865,0.014326,23.000000
7275,270426,181032.000,0,58.14909,8.003137,-14.3,15.33456,2.0,4,72.86,1,2.403074,-2.724617,0.013350,0.070273,0.055805,-0.013220,-0.001784,0.000524,0.008496,0.000562,6.000000
7282,270426,181048.000,0,58.14893,8.003279,-14.0,0.07,3.22,3,94.72,1,2.410767,-2.389834,0.012686,0.083379,0.048226,-0.012571,0.000582,0.001605,0.003815,0.000229,12.000000
7290,270426,181103.000,0,58.14873,8.003696,-13.8,3.72,1.99,4,94.72,1,2.438624,-2.174061,0.006073,0.078441,0.050950,-0.005962,0.000991,0.000600,0.003970,0.000129,21.000001
7298,270426,181104.000,0,58.14876,8.003704,-13.7,2.19,1.77,5,91.78,1,1.296444,-1.773911,0.037804,0.760588,0.178654,-0.033308,0.015888,-0.008204,0.024671,0.001542,19.000000
7312,270426,181119.000,0,58.14867,8.003921,-11.5,11.26,2.3,4,91.78,1,-1.368734,-0.175446,0.017948,0.706827,0.413186,0.006604,-0.010939,-0.012603,0.040359,0.007000,20.000000
7319,270426,181134.000,0,58.14977,8.005138,-7.2,41.01,2.62,5,91.78,1,-0.166326,-0.673751,0.046053,0.581204,0.692208,0.004175,0.044950,0.009111,0.018091,0.003026,22.000000
7340,270426,181150.000,0,58.15103,8.007,-1.1,31.63,2.25,5,26.21,1,1.889123,-2.681873,0.032021,0.523369,0.580256,0.029182,0.011401,0.006615,0.047926,0.012915,22.000000
7360,270426,181206.000,0,58.15163,8.007949,8.3,6.91,2.9,4,355.36,1,-1.021677,-1.692078,0.040260,0.231205,0.211223,0.010444,0.035944,0.014828,0.036896,0.005745,15.000000
7368,270426,181221.000,0,58.15175,8.008473,16.2,22.27,1.37,6,34.03,1,-1.593315,-1.529678,0.052218,0.106983,0.397965,0.009194,-0.051187,-0.004703,0.025133,0.004092,13.000001
7382,270426,181236.000,0,58.15259,8.008879,24.1,20.86,3.24,4,34.03,1,-2.746213,-2.491518,0.032070,0.375551,0.513641,0.031011,-0.007970,0.001821,0.028658,0.004892,18.000001
7390,270426,181237.000,0,58.15267,8.008884,24.8,26.96,4.1,4,359.1,1,-2.132776,-3.015129,0.014901,0.923352,0.485517,0.007640,0.005541,-0.011531,0.023199,0.003869,16.000000
7404,270426,181252.000,0,58.15415,8.009702,35.5,26.96,1.56,6,359.1,1,-1.913144,-2.315644,0.032099,0.371479,1.016910,-0.030132,-0.006184,0.009173,0.032737,0.003998,20.000000
7424,270426,181308.000,0,58.15587,8.010957,44.1,42.01,1.54,6,20.81,1,0.892699,-2.923979,0.035400,0.139951,0.724048,0.024396,0.008778,0.024103,0.027596,0.002115,20.000000
7432,270426,181323.000,0,58.15717,8.011683,51.1,22.46,3.38,4,20.45,1,1.182518,-2.607883,0.116213,5.028170,1.086289,-0.076447,0.053454,-0.069310,0.029493,0.002755,22.000000
7452,270426,181339.000,0,58.15816,8.012192,60.0,19.33,3.1,4,10.73,1,1.137707,-2.135603,0.071724,0.736782,0.438429,0.017466,-0.065098,0.024526,0.040962,0.005557,19.000000
7466,270426,181354.000,0,58.15966,8.011643,65.1,33.20636,1.66,6,332.1,1,0.114574,-1.578071,0.043090,0.676994,0.343399,0.035759,0.021866,-0.009999,0.018288,0.002820,19.000000
7474,270426,181409.000,0,58.16109,8.010289,66.2,35.0,3.34,5,338.47,1,0.672505,-1.642230,0.060430,0.511429,0.325012,0.057897,0.012354,0.012126,0.012963,0.001481,25.000000
7488,270426,181424.000,0,58.1622,8.009119,70.3,26.39,2.75,5,338.47,1,1.921148,-3.504793,0.069098,0.268058,0.302722,0.038926,0.056964,0.003798,0.040034,0.008834,20.000000
7503,270426,181439.000,0,58.16257,8.009009,75.9,0.0,1.33,7,323.61,1,1.277717,-4.256170,0.019147,0.109360,0.087597,-0.007284,-0.017706,0.000216,0.019176,0.002105,20.000000
7517,270426,181454.000,0,58.16267,8.008942,77.1,12.09,1.65,6,326.85,1,-0.354755,-3.715981,0.036249,0.594342,0.332343,-0.008971,0.029186,0.019537,0.025848,0.002559,25.000000
7532,270426,181455.000,0,58.16268,8.008953,76.5,12.68,1.67,6,320.0,1,-0.860937,-3.890033,0.106479,0.219013,0.159087,0.102031,0.027729,0.012594,0.021818,0.002634,19.000000
7546,270426,181510.000,0,58.16309,8.008404,66.2,13.46,1.65,6,334.37,1,0.287610,-2.709211,0.116516,0.619537,0.484511,-0.038713,0.107914,-0.020782,0.037007,0.012874,22.000000
7560,270426,181525.000,0,58.16372,8.009612,58.8,25.59,1.65,6,52.25,1,-1.878782,-1.031899,0.064313,0.924173,0.495055,-0.058613,-0.015711,0.021303,0.037772,0.006697,16.000000
7624,270426,181634.000,0,58.16139,8.018217,28.1,29.5,1.76,5,212.18,1,-0.412955,-1.677759,0.072089,1.069142,0.795408,-0.014126,-0.060848,0.035984,0.024625,0.005843,32.000000
7638,270426,181649.000,0,58.16078,8.01665,23.9,22.73,1.76,5,212.18,1,1.252829,1.198239,0.091768,0.540382,0.463061,-0.036049,0.076084,-0.036511,0.022125,0.006854,26.000001
7646,270426,181650.000,0,58.16073,8.016596,22.4,25.94,1.76,5,202.28,1,3.132824,0.531442,0.069271,0.536766,0.466427,0.055741,0.040434,-0.007515,0.025249,0.007343,22.000000
7660,270426,181705.000,0,58.16015,8.017529,24.8,25.72,1.44,7,87.67,1,1.090245,2.906472,0.155884,1.142756,0.494568,-0.146782,-0.048574,-0.019889,0.053783,0.011819,19.000000
7668,270426,181720.000,0,58.16067,8.019195,26.5,31.02,2.13,6,34.03,1,-0.232159,-1.233023,0.189091,2.042629,0.694818,0.167456,-0.074470,-0.046560,0.089874,0.025290,21.000001
7688,270426,181736.000,0,58.1616,8.021118,28.8,53.76356,2.61,5,62.07,1,-0.946036,0.643222,0.056370,1.673666,0.519823,-0.053930,0.013815,0.008851,0.027109,0.003645,22.000000
7702,270426,181752.000,0,58.16287,8.026096,40.2,73.23,1.75,5,64.47,1,-1.570589,2.497428,0.079257,1.375051,0.572353,0.066249,-0.042946,-0.006959,0.022836,0.004165,11.000000
7710,270426,181753.000,0,58.16295,8.026394,41.0,71.36,1.77,4,62.67,1,-1.123963,0.118673,0.078440,0.356146,0.632408,0.059150,0.050620,-0.009580,0.033896,0.007466,15.000000
7718,270426,181808.000,0,58.16475,8.029827,48.5,74.11,2.63,5,46.33,1,0.486823,0.192094,0.108123,0.775121,0.669807,-0.050957,0.052868,0.079366,0.026270,0.009403,16.000000
7738,270426,181824.000,0,58.16569,8.034286,59.9,56.41,2.64,5,71.88,1,1.654082,0.820481,0.066382,0.938267,0.589387,-0.063994,0.004738,0.016998,0.019526,0.002638,21.000001
7746,270426,181839.000,0,58.16566,8.038121,68.4,46.31,3.86,4,71.88,1,2.573041,1.838041,0.056415,0.548670,0.579492,-0.020594,0.039024,0.035152,0.016637,0.003385,26.000001
7753,270426,181840.000,0,58.16565,8.038388,68.9,45.88,2.77,4,82.28,1,2.403073,0.099435,0.068722,0.454745,0.531840,0.067179,-0.012040,0.008050,0.022191,0.004533,18.000001
7761,270426,181855.000,0,58.16463,8.043962,67.9,71.6,1.32,7,121.35,1,2.245554,0.499141,0.061651,0.242896,0.507288,0.014763,-0.001758,-0.059832,0.026688,0.004610,14.000000
7775,270426,181856.000,0,58.16454,8.04423,67.5,71.36,1.31,7,125.11,1,-0.145957,0.468427,0.075420,1.042679,0.610583,0.041721,-0.050830,-0.036931,0.021059,0.004383,10.000000
7783,270426,181911.000,0,58.16282,8.048375,64.3,73.15,1.42,7,112.56,1,-0.885728,-0.628118,0.064292,1.497457,0.869108,0.055988,-0.024139,-0.020402,0.027736,0.005490,18.000001
7790,270426,181926.000,0,58.16198,8.053128,68.9,74.58,1.42,7,106.9,1,-1.191766,-0.453296,0.012732,0.993771,0.905683,0.003480,-0.011782,-0.003343,0.030993,0.004707,18.000001
7805,270426,181941.000,0,58.16129,8.058284,75.4,76.85,2.81,5,1.0,1,-0.293646,0.127386,0.047635,0.596926,0.629268,-0.022910,0.034137,-0.024059,0.023137,0.003410,10.000000
7867,270426,182035.000,0,58.16166,8.076948,82.5,77.66,3.28,3,82.05001,1,3.831848,-0.081064,0.109481,0.510207,0.455888,0.091600,0.054555,-0.024885,0.027842,0.004758,20.000000
7875,270426,182050.000,0,58.16237,8.081007,40.4,36.93,3.06,5,51.81,1,4.183735,-2.007189,0.075867,0.812074,0.386927,0.066048,-0.016878,0.033294,0.031076,0.007053,20.000000
7908,270426,182122.000,0,58.16261,8.081699,9.8,12.98,4.16,5,63.02,1,-2.088084,1.119503,0.054880,0.305162,0.342447,-0.034380,-0.036767,0.021863,0.027632,0.007580,21.000001
7916,270426,182123.000,0,58.16267,8.081769,10.1,18.89,4.16,5,45.94,1,-2.277891,1.610793,0.020337,0.637386,0.383614,0.020168,0.002013,0.001664,0.027834,0.003474,21.000001
7937,270426,182139.000,0,58.16396,8.083792,17.6,54.55,3.29,5,50.0,1,0.665996,2.261840,0.076068,1.002784,0.406818,-0.040192,0.012065,0.063446,0.012733,0.004314,10.000000
7944,270426,182154.000,0,58.16524,8.08821,14.4,74.58,1.74,5,68.02,1,1.221520,2.000897,0.067557,1.582715,0.513249,0.058270,0.033622,0.006178,0.017346,0.003369,13.000001
7952,270426,182209.000,0,58.16595,8.093158,13.0,68.62,2.88,4,68.02,1,1.497858,1.957340,0.051103,1.348483,0.545852,0.049292,0.009202,-0.009856,0.016489,0.002161,13.000001
7966,270426,182210.000,0,58.16596,8.093504,13.0,68.67,2.88,4,68.02,1,0.970826,2.558517,0.015982,0.854027,0.560908,0.000784,-0.000486,-0.015955,0.021537,0.002574,21.000001
7981,270426,182226.000,0,58.16619,8.098988,12.6,64.26,4.55,3,82.44,1,0.881593,1.726656,0.038878,0.224793,0.540463,0.000277,-0.020734,-0.032887,0.017810,0.002075,20.000000
7988,270426,182241.000,0,58.16743,8.10332,10.4,53.26,4.58,3,70.43,1,0.334969,1.807370,0.030880,0.835694,0.475689,-0.019390,-0.000827,0.024018,0.017468,0.002330,21.000001
8002,270426,182242.000,0,58.16751,8.103566,10.4,52.73,4.58,3,70.43,1,-0.324499,2.396969,0.027517,0.813945,0.566474,-0.025609,-0.007748,-0.006430,0.021739,0.002249,21.000001
8010,270426,182257.000,0,58.16945,8.106762,10.3,42.39,4.66,3,44.57,1,-0.541611,2.359098,0.026132,0.561315,0.553725,0.010500,-0.023319,0.005372,0.021959,0.001897,17.000000
8037,270426,182327.000,0,58.17537,8.110795,20.7,67.89,4.38,5,25.54,1,-2.080274,3.371976,0.019263,0.335995,0.446742,0.017986,-0.002168,0.006547,0.013364,0.001246,19.000000
8051,270426,182342.000,0,58.17797,8.11337,36.1,67.14,3.35,5,28.0,1,-2.076054,2.122130,0.024689,1.219310,0.546337,0.013577,-0.008680,0.018705,0.016199,0.001655,24.000001
8059,270426,182343.000,0,58.17811,8.113615,37.1,71.17,3.35,5,43.5,1,-1.329896,2.735386,0.090297,0.912702,0.626610,0.073696,0.041425,-0.031723,0.026094,0.003539,24.000001
8079,270426,182412.000,0,58.18122,8.1208,55.7,72.06,3.62,5,48.74,1,3.792584,0.065942,0.049412,0.559288,0.825855,0.006497,0.048982,0.000178,0.034302,0.009904,24.000001
8094,270426,182427.000,0,58.1811,8.122378,60.6,23.52,1.61,5,73.57,1,-0.972598,-2.220478,0.063695,0.276708,0.669729,-0.042985,-0.045058,-0.013383,0.066467,0.021507,20.000000
8108,270426,182442.000,0,58.18031,8.124435,67.6,41.9,1.72,5,114.72,1,0.988422,-2.292130,0.055058,1.339040,0.975119,0.051900,0.005319,0.017595,0.043504,0.009592,11.000000
8122,270426,182443.000,0,58.18028,8.124629,68.1,39.29,1.72,5,108.46,1,0.766411,-2.670230,0.118984,0.561218,0.416867,0.118710,0.008041,0.000743,0.036948,0.006343,20.000000
8136,270426,182458.000,0,58.18028,8.124629,68.1,36.91036,1.72,5,109.23,1,1.629573,-1.916104,0.211576,1.271940,0.387381,-0.204737,-0.017644,-0.050360,0.052633,0.012371,21.000001
8143,270426,182512.000,0,58.17901,8.128259,79.9,22.96,2.16,5,109.23,1,2.247229,0.491474,0.095155,0.655744,0.818517,-0.010490,0.092701,0.018736,0.068690,0.017750,23.000000
8206,270426,182604.000,0,58.17789,8.130059,60.1,31.01,1.22,5,97.24,1,0.198320,2.698596,0.109858,0.298994,0.516405,0.065331,-0.072189,0.050886,0.060876,0.014830,13.000001
8227,270426,182633.000,0,58.17834,8.134215,58.2,40.5,3.79,5,98.72001,1,3.322103,-0.020736,0.098850,0.738200,0.436466,0.064922,0.072689,0.016512,0.028459,0.006722,24.000001
8241,270426,182648.000,0,58.17896,8.136645,56.8,32.26,1.44,6,48.22,1,1.801686,-0.389161,0.025801,0.856042,0.306880,0.018865,0.005468,0.016729,0.047974,0.015694,16.000000
8255,270426,182703.000,0,58.17974,8.13789,50.4,38.94756,1.47,6,34.73,1,-0.165140,-3.984412,0.088984,1.735074,1.254120,0.019838,-0.085268,0.015941,0.071113,0.019499,16.000000
8269,270426,182719.000,0,58.18037,8.140252,55.9,46.05,1.83,6,86.16,1,-0.741645,-0.834354,0.087371,2.552102,1.601197,-0.051097,0.065707,0.026561,0.039687,0.012240,25.000000
8296,270426,182736.000,0,58.18028,8.144032,55.9,36.96,1.83,5,81.46,1,1.250597,-1.260713,0.040395,0.055668,0.284006,0.002041,-0.040326,-0.001187,0.031201,0.005345,21.000001
8304,270426,182751.000,0,58.18054,8.145565,63.4,5.02,6.57,4,52.89,1,0.440337,-1.222198,0.025220,0.067006,0.106671,-0.007111,-0.024135,0.001722,0.014835,0.001785,23.000000
8318,270426,182807.000,0,58.18048,8.145489,63.5,0.0,2.37,4,52.89,1,-2.444501,-0.493835,0.090764,0.158412,0.164995,-0.050702,-0.075166,-0.004178,0.036040,0.004158,19.000000
8325,270426,182808.000,0,58.18048,8.145489,63.5,0.0,2.38,4,52.89,1,-0.979102,-0.046785,0.128276,0.626628,0.358720,0.010900,0.126678,-0.016994,0.033109,0.007504,16.000000
8333,270426,182823.000,0,58.18055,8.146314,64.1,26.14,3.9,5,52.89,1,0.885250,0.858330,0.169706,0.556614,0.443732,-0.166343,0.026287,-0.020960,0.041101,0.010904,18.000001
8366,270426,182855.000,0,58.18262,8.149593,72.8,64.02,1.49,7,30.92,1,-1.956777,3.934708,0.046708,1.514821,0.673434,0.042566,0.003501,0.018907,0.025531,0.004778,23.000000
8374,270426,182910.000,0,58.18542,8.151553,72.8,64.02,1.6,6,30.92,1,-1.315555,3.700789,0.092568,3.188878,0.757045,0.074832,0.043403,0.032944,0.020934,0.004049,21.000001
8381,270426,182911.000,0,58.18565,8.151699,72.5,90.94001,1.6,6,30.92,1,-0.101868,3.714444,0.036726,0.720586,0.763754,-0.000709,0.036011,0.007176,0.019490,0.003782,24.000001
8390,270426,182926.000,0,58.18912,8.153852,71.0,91.32,3.0,6,30.92,1,0.899390,2.802890,0.070440,0.522937,0.660844,0.051369,0.047864,0.005662,0.019222,0.004104,24.000001
8404,270426,182927.000,0,58.18933,8.153978,70.9,92.49,3.0,6,19.6,1,1.154710,0.854967,0.045434,0.483843,0.842539,0.035871,-0.010834,-0.025694,0.033514,0.004604,24.000001
8418,270426,182943.000,0,58.19242,8.157446,65.3,91.25,1.47,7,39.65,1,0.638100,0.971190,0.015837,0.419339,0.845113,0.006273,-0.007934,-0.012186,0.024695,0.003136,18.000001
8432,270426,182959.000,0,58.19492,8.16228,66.1,90.41,1.31,7,46.36,1,0.961369,0.570148,0.038116,1.075116,0.682896,0.016787,-0.001621,-0.034182,0.019461,0.002259,27.000000
8440,270426,183014.000,0,58.19718,8.167147,66.30001,87.26001,1.31,7,55.75,1,1.090074,0.341708,0.076253,2.635259,0.913183,0.074301,0.006322,-0.015934,0.024322,0.003234,28.000000
8454,270426,183015.000,0,58.19729,8.167505,66.30001,87.72,1.31,8,57.05,1,1.194279,-0.247802,0.042253,1.094072,0.798488,-0.041396,0.007918,-0.002993,0.021037,0.002386,26.000001
8462,270426,183030.000,0,58.19871,8.173325,65.8,86.06,5.02,4,69.98001,1,1.632116,0.508818,0.091818,2.083506,0.742946,-0.053274,0.038517,-0.064100,0.026192,0.003156,24.000001
8524,270426,183139.000,0,58.20153,8.199585,119.1,7.22,6.19,3,74.93,1,-0.238818,-0.261499,0.078107,2.302182,0.935584,0.052885,0.003851,0.057351,0.022033,0.002411,28.000000
8532,270426,183140.000,0,58.20161,8.199763,116.4,9.17,6.2,3,74.7,1,-0.510203,-1.046948,0.108546,1.806795,0.974323,0.096437,-0.012548,0.048214,0.030628,0.003600,26.000001
8571,270426,183215.000,0,58.20529,8.216346,364.3,49.29,2.17,4,40.89,1,0.441997,-0.692669,0.041270,0.399521,0.756677,-0.037796,0.009175,-0.013801,0.022916,0.002811,21.000001
8693,270426,183421.000,0,58.22543,8.251049,34.7,86.57001,1.13,8,48.91,1,-0.969330,-1.481848,0.026145,1.023032,0.764779,0.023669,-0.007127,-0.008517,0.017937,0.002496,26.000001
8713,270426,183437.000,0,58.22763,8.256639,52.5,95.44001,8.51,5,55.53,1,-0.334188,-1.616197,0.029799,1.321657,0.737613,-0.022854,0.016717,-0.009287,0.017770,0.002015,30.000000
