Time, UTC Time, Label, Latitude, Longitude, Altitude, Speed, HDOP, Satelites, Course, Fix, Accel UTC, Roll Degrees, Pitch Degrees, Dynamic Magnitude, Jerk, Jerk Std, Acceleration X, Acceleration Y, Acceleration Z, Standard Deviation, Energy, Zero Crossings
2026-04-27T18:28:58.206512,270426_170031.312500,1,58.14461898803711,8.009113311767578,0.10000000149011612,1.2100000381469727,3.4100000858306885,3,154.22999572753906,1,270426_172548.984375,0.43689191341400146,0.7715017795562744,0.003451791824772954,0.08175477385520935,0.04512802138924599,-0.00041018164483830333,-0.0018068646313622594,-0.002912362804636359,0.0014852455351501703,1.0445426596561447e-05,20.0
2026-04-27T18:28:58.206933,270426_170031.312500,1,58.14461898803711,8.009113311767578,0.10000000149011612,1.2100000381469727,3.4100000858306885,3,154.22999572753906,1,270426_172548.984375,0.43689191341400146,0.7715017795562744,0.003451791824772954,0.08175477385520935,0.04512802138924599,-0.00041018164483830333,-0.0018068646313622594,-0.002912362804636359,0.0014852455351501703,1.0445426596561447e-05,20.0
2026-04-27T18:28:58.207234,270426_170031.312500,1,58.14461898803711,8.009113311767578,0.10000000149011612,1.2100000381469727,3.4100000858306885,3,154.22999572753906,1,270426_172548.984375,0.43689191341400146,0.7715017795562744,0.003451791824772954,0.08175477385520935,0.04512802138924599,-0.00041018164483830333,-0.0018068646313622594,-0.002912362804636359,0.0014852455351501703,1.0445426596561447e-05,20.0
2026-04-27T18:28:58.254456,270426_170031.312500,1,58.14461898803711,8.009113311767578,0.10000000149011612,1.2100000381469727,3.4100000858306885,3,154.22999572753906,1,270426_172548.984375,0.43689191341400146,0.7715017795562744,0.003451791824772954,0.08175477385520935,0.04512802138924599,-0.00041018164483830333,-0.0018068646313622594,-0.002912362804636359,0.0014852455351501703,1.0445426596561447e-05,20.0
2026-04-27T18:29:01.326385,270426_170043.015625,1,58.14461135864258,8.009108543395996,-1.600000023841858,0.5799999833106995,1.7699999809265137,4,154.22999572753906,1,270426_172548.984375,0.440803200006485,0.7761990427970886,0.0010831647086888552,0.05360747128725052,0.040808990597724915,9.239472274202853e-05,0.0002914021897595376,0.0010391310788691044,0.0015237663174048066,9.336631592304911e-06,22.0
2026-04-27T18:29:04.276167,270426_170044.000000,1,58.14461135864258,8.009108543395996,-1.600000023841858,0.5,1.7699999809265137,4,154.22999572753906,1,270426_172548.984375,0.43898364901542664,0.7753015160560608,0.0021459530107676983,0.016063028946518898,0.03898199647665024,-0.0006475099944509566,-0.0011463395785540342,0.001694624312222004,0.0013944691745564342,9.052491805050522e-06,26.0
2026-04-27T18:29:07.320361,270426_170056.000000,1,58.144630432128906,8.0090913772583,-1.2000000476837158,0.3799999952316284,1.4299999475479126,5,154.22999572753906,1,270426_172548.984375,0.4258682131767273,0.7646851539611816,0.003467339789494872,0.11203508824110031,0.04750675708055496,-0.0013619712553918362,-0.0029699066653847694,-0.0011606619227677584,0.0016974604222923517,1.2266453268239275e-05,24.0
2026-04-27T18:29:10.385509,270426_170106.000000,1,58.1446418762207,8.009084701538086,-1.2000000476837158,0.0,1.1799999475479126,6,154.22999572753906,1,270426_172548.984375,0.4398966133594513,0.7694326043128967,0.0030814255587756634,0.09260684996843338,0.049388617277145386,-0.00039972912054508924,0.002997367875650525,0.0005926091107539833,0.0017464908305555582,1.232506019732682e-05,26.0
2026-04-27T18:29:13.427342,270426_170107.015625,1,58.1446418762207,8.009084701538086,-1.2000000476837158,0.0,1.1799999475479126,6,154.22999572753906,1,270426_172604.000000,0.44980865716934204,0.7601345181465149,0.001859628246165812,0.11120712757110596,0.07575758546590805,0.0006763550918549299,0.0004947847919538617,0.0016601051902398467,0.00253766356036067,2.1359424863476306e-05,25.0
2026-04-27T18:29:16.603695,270426_170119.015625,1,58.1446418762207,8.009084701538086,-1.2000000476837158,0.0,1.1799999475479126,6,154.22999572753906,1,270426_172604.000000,0.4450169503688812,0.7613304257392883,0.0030687395483255386,0.05938877537846565,0.07567085325717926,0.0011478338856250048,-0.002573505975306034,-0.0012151977280154824,0.002508223056793213,2.139370008080732e-05,25.0
2026-04-27T18:29:16.604087,270426_170119.015625,1,58.1446418762207,8.009084701538086,-1.2000000476837158,0.0,1.1799999475479126,6,154.22999572753906,1,270426_172604.000000,0.4450169503688812,0.7613304257392883,0.0030687395483255386,0.05938877537846565,0.07567085325717926,0.0011478338856250048,-0.002573505975306034,-0.0012151977280154824,0.002508223056793213,2.139370008080732e-05,25.0
2026-04-27T18:29:19.470624,270426_170120.000000,1,58.1446418762207,8.009084701538086,-1.2000000476837158,0.0,1.1799999475479126,6,154.22999572753906,1,270426_172604.000000,0.44520634412765503,0.7656533718109131,0.01425632368773222,0.2547607719898224,0.09039472788572311,-0.002228423021733761,-0.004041894339025021,0.01348851341754198,0.004440263845026493,3.984258000855334e-05,27.0
2026-04-27T18:29:22.578310,270426_170120.984375,1,58.1446418762207,8.009084701538086,-1.2000000476837158,0.0,1.1799999475479126,6,154.22999572753906,1,270426_172604.000000,0.4520411491394043,0.7625196576118469,0.0041177282109856606,0.11331325024366379,0.09325417131185532,-0.0019022967899218202,-0.0012194061418995261,-0.0034423829056322575,0.004459908697754145,4.11350883950945e-05,25.0
2026-04-27T18:29:22.578648,270426_170120.984375,1,58.1446418762207,8.009084701538086,-1.2000000476837158,0.0,1.1799999475479126,6,154.22999572753906,1,270426_172604.000000,0.4520411491394043,0.7625196576118469,0.0041177282109856606,0.11331325024366379,0.09325417131185532,-0.0019022967899218202,-0.0012194061418995261,-0.0034423829056322575,0.004459908697754145,4.11350883950945e-05,25.0
2026-04-27T18:29:22.578869,270426_170120.984375,1,58.1446418762207,8.009084701538086,-1.2000000476837158,0.0,1.1799999475479126,6,154.22999572753906,1,270426_172604.000000,0.4520411491394043,0.7625196576118469,0.0041177282109856606,0.11331325024366379,0.09325417131185532,-0.0019022967899218202,-0.0012194061418995261,-0.0034423829056322575,0.004459908697754145,4.11350883950945e-05,25.0
2026-04-27T18:29:22.581404,270426_170120.984375,1,58.1446418762207,8.009084701538086,-1.2000000476837158,0.0,1.1799999475479126,6,154.22999572753906,1,270426_172604.000000,0.4520411491394043,0.7625196576118469,0.0041177282109856606,0.11331325024366379,0.09325417131185532,-0.0019022967899218202,-0.0012194061418995261,-0.0034423829056322575,0.004459908697754145,4.11350883950945e-05,25.0
2026-04-27T18:29:25.760651,270426_170132.000000,1,58.1446418762207,8.009084701538086,-1.2000000476837158,0.0,1.1799999475479126,6,154.22999572753906,1,270426_172619.015625,0.47449108958244324,0.7615242004394531,0.003151246113702655,0.11641643196344376,0.18414907157421112,-0.0026049017906188965,-0.0015168216777965426,0.0009187441901303828,0.010505619458854198,0.00015640318451914936,25.0
2026-04-27T18:29:28.725254,270426_170134.000000,1,58.1446418762207,8.009084701538086,-1.2000000476837158,0.0,1.1799999475479126,6,154.22999572753906,1,270426_172619.015625,0.45897209644317627,0.7643751502037048,0.002386645181104541,0.08043534308671951,0.1844160407781601,0.0011114481603726745,-0.0017373518785461783,0.0012009857455268502,0.010523608885705471,0.00015680403157602996,27.0
2026-04-27T18:29:28.725518,270426_170134.000000,1,58.1446418762207,8.009084701538086,-1.2000000476837158,0.0,1.1799999475479126,6,154.22999572753906,1,270426_172619.015625,0.45897209644317627,0.7643751502037048,0.002386645181104541,0.08043534308671951,0.1844160407781601,0.0011114481603726745,-0.0017373518785461783,0.0012009857455268502,0.010523608885705471,0.00015680403157602996,27.0
2026-04-27T18:29:28.725747,270426_170134.000000,1,58.1446418762207,8.009084701538086,-1.2000000476837158,0.0,1.1799999475479126,6,154.22999572753906,1,270426_172619.015625,0.45897209644317627,0.7643751502037048,0.002386645181104541,0.08043534308671951,0.1844160407781601,0.0011114481603726745,-0.0017373518785461783,0.0012009857455268502,0.010523608885705471,0.00015680403157602996,27.0
2026-04-27T18:29:28.760269,270426_170134.000000,1,58.1446418762207,8.009084701538086,-1.2000000476837158,0.0,1.1799999475479126,6,154.22999572753906,1,270426_172619.015625,0.45897209644317627,0.7643751502037048,0.002386645181104541,0.08043534308671951,0.1844160407781601,0.0011114481603726745,-0.0017373518785461783,0.0012009857455268502,0.010523608885705471,0.00015680403157602996,27.0
2026-04-27T18:29:28.762303,270426_170134.000000,1,58.1446418762207,8.009084701538086,-1.2000000476837158,0.0,1.1799999475479126,6,154.22999572753906,1,270426_172619.015625,0.45897209644317627,0.7643751502037048,0.002386645181104541,0.08043534308671951,0.1844160407781601,0.0011114481603726745,-0.0017373518785461783,0.0012009857455268502,0.010523608885705471,0.00015680403157602996,27.0
2026-04-27T18:29:28.762640,270426_170134.000000,1,58.1446418762207,8.009084701538086,-1.2000000476837158,0.0,1.1799999475479126,6,154.22999572753906,1,270426_172619.015625,0.45897209644317627,0.7643751502037048,0.002386645181104541,0.08043534308671951,0.1844160407781601,0.0011114481603726745,-0.0017373518785461783,0.0012009857455268502,0.010523608885705471,0.00015680403157602996,27.0
2026-04-27T18:29:31.686797,270426_170135.015625,1,58.1446418762207,8.009084701538086,-1.2000000476837158,0.0,1.1799999475479126,6,154.22999572753906,1,270426_172619.015625,0.4538111984729767,0.7606586217880249,0.0019227750599384308,0.13580241799354553,0.18589016795158386,-0.0006978188175708055,-0.0010157034266740084,-0.0014759607147425413,0.0104362228885293,0.0001628602622076869,25.0
2026-04-27T18:29:34.765946,270426_170147.015625,1,58.1446418762207,8.009084701538086,-1.2000000476837158,0.0,1.1799999475479126,6,154.22999572753906,1,270426_172619.015625,0.4450664520263672,0.7583842873573303,0.0055256313644349575,0.1040518656373024,0.180605947971344,0.0004566533025354147,0.0009115163702517748,0.005430764984339476,0.009916821494698524,0.00014590396312996745,27.0
2026-04-27T18:29:37.850276,270426_170148.984375,1,58.1446418762207,8.009084701538086,-1.2000000476837158,0.0,1.1799999475479126,6,154.22999572753906,1,270426_172619.015625,0.4397765100002289,0.7746164202690125,0.0007931480649858713,0.0457952506840229,0.17019261419773102,-0.0001794172712834552,-0.0005451581091620028,0.0005474449135363102,0.006577009800821543,6.926988862687722e-05,29.0
2026-04-27T18:29:40.814733,270426_170200.000000,1,58.1446418762207,8.009084701538086,-1.2000000476837158,0.0,1.1799999475479126,6,154.22999572753906,1,270426_172634.000000,0.4526536464691162,0.7782172560691833,0.0032677515409886837,0.05017228424549103,0.0695333406329155,2.5647170787124196e-06,0.0032603724393993616,0.00021946498600300401,0.0024428737815469503,2.1406325686257333e-05,28.0
2026-04-27T18:29:43.878490,270426_170200.984375,1,58.1446418762207,8.009084701538086,-1.2000000476837158,0.0,1.1799999475479126,6,154.22999572753906,1,270426_172634.000000,0.451163113117218,0.7752076387405396,0.0016915174201130867,0.05468924716114998,0.06883049011230469,-3.041538002435118e-05,0.0003452320524957031,0.001655633095651865,0.00243581086397171,2.0249339286237955e-05,28.0
2026-04-27T18:29:46.966605,270426_170202.000000,1,58.1446418762207,8.009084701538086,-1.2000000476837158,0.0,1.1799999475479126,6,154.22999572753906,1,270426_172634.000000,0.5148831605911255,0.6956250071525574,0.016224684193730354,0.1851506382226944,0.2179422378540039,0.010285725817084312,0.012547506019473076,-6.546849908772856e-05,0.00880166981369257,0.00010765330807771534,26.0
2026-04-27T18:29:49.946629,270426_170212.000000,1,58.1446418762207,8.009084701538086,-1.2000000476837158,0.0,1.0299999713897705,8,154.22999572753906,1,270426_172634.000000,-1.4154497385025024,-2.7826735973358154,0.3425174057483673,2.3326575756073,1.8986284732818604,0.21227067708969116,-0.005444706417620182,0.26875582337379456,0.14204363524913788,0.029386671259999275,22.0
2026-04-27T18:29:53.108964,270426_170212.984375,1,58.1446418762207,8.009084701538086,-1.2000000476837158,0.0,1.0299999713897705,8,154.22999572753906,1,270426_172634.000000,-2.135998249053955,-2.619703769683838,0.12210310250520706,1.7975616455078125,1.905534029006958,-0.04200899228453636,-0.08428005129098892,-0.07772570103406906,0.1351204514503479,0.03356841951608658,20.0
2026-04-27T18:29:56.065171,270426_170214.000000,1,58.1446418762207,8.009084701538086,-1.2000000476837158,0.0,1.0299999713897705,8,154.22999572753906,1,270426_172634.000000,-2.789353132247925,-1.394473910331726,0.3238877058029175,2.9978578090667725,2.0261707305908203,-0.19598135352134705,-0.08387016505002975,0.24384494125843048,0.12626881897449493,0.04358891397714615,16.0
2026-04-27T18:29:59.159123,270426_170226.000000,1,58.14461135864258,8.009135246276855,-0.10000000149011612,0.7599999904632568,0.949999988079071,9,154.22999572753906,1,270426_172634.000000,-3.653019428253174,0.7212555408477783,0.3233972489833832,2.17513370513916,1.9453656673431396,-0.23404623568058014,0.092888742685318,0.20292812585830688,0.09537743777036667,0.056169215589761734,14.0
2026-04-27T18:30:02.233483,270426_170236.000000,1,58.14461135864258,8.009090423583984,-2.5999999046325684,0.0,0.949999988079071,9,154.22999572753906,1,270426_172648.984375,-4.132161617279053,1.3394807577133179,0.12792164087295532,1.9047280550003052,1.4848215579986572,0.028402838855981827,-0.09485820680856705,0.08098854124546051,0.07505592703819275,0.03918099030852318,16.0
2026-04-27T18:30:05.285710,270426_170236.984375,1,58.14461135864258,8.009090423583984,-2.5999999046325684,0.0,0.949999988079071,9,154.22999572753906,1,270426_172648.984375,-4.4659104347229,2.4943718910217285,0.1953999251127243,1.2836328744888306,1.4766806364059448,-0.12235221266746521,-0.060662370175123215,-0.13975386321544647,0.07120497524738312,0.03905385732650757,14.0
2026-04-27T18:30:05.286225,270426_170236.984375,1,58.14461135864258,8.009090423583984,-2.5999999046325684,0.0,0.949999988079071,9,154.22999572753906,1,270426_172648.984375,-4.4659104347229,2.4943718910217285,0.1953999251127243,1.2836328744888306,1.4766806364059448,-0.12235221266746521,-0.060662370175123215,-0.13975386321544647,0.07120497524738312,0.03905385732650757,14.0
2026-04-27T18:30:05.286588,270426_170236.984375,1,58.14461135864258,8.009090423583984,-2.5999999046325684,0.0,0.949999988079071,9,154.22999572753906,1,270426_172648.984375,-4.4659104347229,2.4943718910217285,0.1953999251127243,1.2836328744888306,1.4766806364059448,-0.12235221266746521,-0.060662370175123215,-0.13975386321544647,0.07120497524738312,0.03905385732650757,14.0
2026-04-27T18:30:05.304103,270426_170236.984375,1,58.14461135864258,8.009090423583984,-2.5999999046325684,0.0,0.949999988079071,9,154.22999572753906,1,270426_172648.984375,-4.4659104347229,2.4943718910217285,0.1953999251127243,1.2836328744888306,1.4766806364059448,-0.12235221266746521,-0.060662370175123215,-0.13975386321544647,0.07120497524738312,0.03905385732650757,14.0
2026-04-27T18:30:08.249927,270426_170238.000000,1,58.14461135864258,8.0090913772583,-2.5999999046325684,0.0,0.949999988079071,9,154.22999572753906,1,270426_172648.984375,-4.140358924865723,3.3038527965545654,0.16225877404212952,2.1855790615081787,1.802696704864502,-0.05388529598712921,0.01733533665537834,-0.15206502377986908,0.07101219892501831,0.04271766543388367,16.0
2026-04-27T18:30:11.288514,270426_170248.000000,1,58.14461898803711,8.009119033813477,-0.699999988079071,1.309999942779541,0.949999988079071,9,154.22999572753906,1,270426_172648.984375,-4.603248596191406,4.9609222412109375,0.17750872671604156,5.246638298034668,1.6421489715576172,-0.15763093531131744,0.06898223608732224,-0.04362671449780464,0.055698297917842865,0.04135432839393616,13.0
2026-04-27T18:30:14.393650,270426_170248.984375,1,58.14461898803711,8.009119987487793,0.0,0.0,0.949999988079071,9,154.22999572753906,1,270426_172704.000000,-4.546663284301758,4.656381607055664,0.2753269374370575,5.030560493469238,1.8562607765197754,0.17395848035812378,0.0145795326679945,-0.21291029453277588,0.05421780049800873,0.040426064282655716,13.0
2026-04-27T18:30:14.394036,270426_170248.984375,1,58.14461898803711,8.009119987487793,0.0,0.0,0.949999988079071,9,154.22999572753906,1,270426_172704.000000,-4.546663284301758,4.656381607055664,0.2753269374370575,5.030560493469238,1.8562607765197754,0.17395848035812378,0.0145795326679945,-0.21291029453277588,0.05421780049800873,0.040426064282655716,13.0
2026-04-27T18:30:14.394402,270426_170248.984375,1,58.14461898803711,8.009119987487793,0.0,0.0,0.949999988079071,9,154.22999572753906,1,270426_172704.000000,-4.546663284301758,4.656381607055664,0.2753269374370575,5.030560493469238,1.8562607765197754,0.17395848035812378,0.0145795326679945,-0.21291029453277588,0.05421780049800873,0.040426064282655716,13.0
2026-04-27T18:30:14.459827,270426_170248.984375,1,58.14461898803711,8.009119987487793,0.0,0.0,0.949999988079071,9,154.22999572753906,1,270426_172704.000000,-4.546663284301758,4.656381607055664,0.2753269374370575,5.030560493469238,1.8562607765197754,0.17395848035812378,0.0145795326679945,-0.21291029453277588,0.05421780049800873,0.040426064282655716,13.0
2026-04-27T18:30:17.464676,270426_170300.000000,1,58.144630432128906,8.009121894836426,-0.30000001192092896,0.0,0.949999988079071,9,154.22999572753906,1,270426_172704.000000,-5.002892971038818,4.71022367477417,0.22768528759479523,1.2096245288848877,1.7713085412979126,0.002468908205628395,-0.051713984459638596,-0.22172091901302338,0.05353176221251488,0.038039371371269226,13.0
2026-04-27T18:30:20.465848,270426_170300.984375,1,58.144630432128906,8.009121894836426,-0.30000001192092896,0.0,0.949999988079071,9,154.22999572753906,1,270426_172704.000000,-5.025143623352051,5.452385902404785,0.13143566250801086,1.0173108577728271,1.8317056894302368,0.008003122173249722,-0.021687310189008713,0.1293867975473404,0.06562864780426025,0.039523154497146606,13.0
2026-04-27T18:30:23.606161,270426_170302.000000,1,58.144630432128906,8.009121894836426,-0.30000001192092896,0.0,0.949999988079071,9,154.22999572753906,1,270426_172718.000000,-5.084127426147461,4.533710479736328,0.10080586373806,1.5520734786987305,1.5178946256637573,0.055289268493652344,-0.058412496000528336,0.060769230127334595,0.06895845383405685,0.035697128623723984,14.0
2026-04-27T18:30:26.578283,270426_170311.015625,1,58.14461135864258,8.009113311767578,0.0,0.7200000286102295,0.949999988079071,9,154.22999572753906,1,270426_172718.000000,-6.162303447723389,4.218346118927002,0.24929386377334595,2.716534376144409,1.7741941213607788,-0.16230905055999756,-0.03057296946644783,-0.18673110008239746,0.07410198450088501,0.039241187274456024,16.0
2026-04-27T18:30:29.653219,270426_170312.000000,1,58.14461135864258,8.009108543395996,-0.10000000149011612,0.0,0.949999988079071,9,154.22999572753906,1,270426_172718.000000,-7.200329303741455,4.139856815338135,0.24603785574436188,1.613797664642334,1.6715210676193237,-0.11380035430192947,-0.14751888811588287,-0.16069313883781433,0.07435265928506851,0.04088333994150162,14.0
2026-04-27T18:30:32.792230,270426_170312.984375,1,58.14461135864258,8.009103775024414,-0.10000000149011612,0.0,0.949999988079071,9,154.22999572753906,1,270426_172718.000000,-7.548491477966309,3.051567316055298,0.2648822069168091,1.5919290781021118,1.6580760478973389,0.08974435180425644,-0.1390620917081833,0.20680972933769226,0.08317432552576065,0.04482414200901985,16.0
2026-04-27T18:30:35.705774,270426_170322.000000,1,58.14461135864258,8.009100914001465,-0.10000000149011612,0.0,0.949999988079071,9,154.22999572753906,1,270426_172718.000000,-7.743488311767578,3.1445164680480957,0.12683585286140442,1.5104244947433472,1.6631766557693481,-0.038713958114385605,-0.11213675141334534,-0.04487663507461548,0.0793551355600357,0.04374367743730545,14.0
2026-04-27T18:30:38.785760,270426_170323.015625,1,58.14461135864258,8.009100914001465,-0.10000000149011612,0.0,0.949999988079071,9,154.22999572753906,1,270426_172718.000000,-7.893592834472656,1.1637814044952393,0.2195664346218109,2.0871386528015137,1.8548941612243652,0.19024121761322021,-0.029695190489292145,0.10552675276994705,0.08489690721035004,0.04879751801490784,16.0
2026-04-27T18:30:41.737635,270426_170332.000000,1,58.14461135864258,8.009100914001465,-0.10000000149011612,0.0,0.8700000047683716,10,154.22999572753906,1,270426_172718.000000,-7.936888694763184,0.8001176118850708,0.11277785897254944,2.8888332843780518,1.6636351346969604,0.01980273239314556,-0.07719889283180237,-0.07979366183280945,0.08621609210968018,0.045114707201719284,16.0
2026-04-27T18:30:41.753633,270426_170332.000000,1,58.14461135864258,8.009100914001465,-0.10000000149011612,0.0,0.8700000047683716,10,154.22999572753906,1,270426_172718.000000,-8.328505516052246,0.565340518951416,0.17280033230781555,3.0915420055389404,1.717017650604248,0.051251642405986786,-0.15225961804389954,0.06364145874977112,0.08527978509664536,0.04408727213740349,16.0
2026-04-27T18:30:45.165290,270426_170332.984375,1,58.14461135864258,8.009100914001465,-0.10000000149011612,0.0,0.8700000047683716,10,154.22999572753906,1,270426_172718.000000,-7.877397537231445,-1.3457717895507812,0.28144294023513794,1.2091150283813477,1.7745574712753296,0.2265154868364334,0.1017744243144989,0.13244935870170593,0.08006200194358826,0.044596120715141296,16.0
2026-04-27T18:30:47.903525,270426_170342.000000,1,58.14461135864258,8.009100914001465,-0.10000000149011612,0.0,0.8700000047683716,10,154.22999572753906,1,270426_172718.000000,-7.858819484710693,-1.962453842163086,0.18895867466926575,1.1516889333724976,1.8662766218185425,0.07039838284254074,0.05723060667514801,-0.16575314104557037,0.07753130048513412,0.04446661099791527,18.0
2026-04-27T18:30:47.904079,270426_170342.000000,1,58.14461135864258,8.009100914001465,-0.10000000149011612,0.0,0.8700000047683716,10,154.22999572753906,1,270426_172718.000000,-7.858819484710693,-1.962453842163086,0.18895867466926575,1.1516889333724976,1.8662766218185425,0.07039838284254074,0.05723060667514801,-0.16575314104557037,0.07753130048513412,0.04446661099791527,18.0
2026-04-27T18:30:47.904553,270426_170342.000000,1,58.14461135864258,8.009100914001465,-0.10000000149011612,0.0,0.8700000047683716,10,154.22999572753906,1,270426_172718.000000,-7.858819484710693,-1.962453842163086,0.18895867466926575,1.1516889333724976,1.8662766218185425,0.07039838284254074,0.05723060667514801,-0.16575314104557037,0.07753130048513412,0.04446661099791527,18.0
2026-04-27T18:30:48.000576,270426_170342.000000,1,58.14461135864258,8.009100914001465,-0.10000000149011612,0.0,0.8700000047683716,10,154.22999572753906,1,270426_172718.000000,-7.858819484710693,-1.962453842163086,0.18895867466926575,1.1516889333724976,1.8662766218185425,0.07039838284254074,0.05723060667514801,-0.16575314104557037,0.07753130048513412,0.04446661099791527,18.0
2026-04-27T18:30:48.000818,270426_170342.000000,1,58.14461135864258,8.009100914001465,-0.10000000149011612,0.0,0.8700000047683716,10,154.22999572753906,1,270426_172718.000000,-7.858819484710693,-1.962453842163086,0.18895867466926575,1.1516889333724976,1.8662766218185425,0.07039838284254074,0.05723060667514801,-0.16575314104557037,0.07753130048513412,0.04446661099791527,18.0
2026-04-27T18:30:51.034175,270426_170351.015625,1,58.14461135864258,8.009100914001465,-0.10000000149011612,0.0,0.8700000047683716,10,154.22999572753906,1,270426_172718.000000,-7.712212085723877,-2.2092626094818115,0.046813108026981354,7.204645156860352,2.0088951587677,-0.024921629577875137,0.023032035678625107,-0.03224755823612213,0.07664528489112854,0.04564940929412842,18.0
2026-04-27T18:30:53.919666,270426_170402.000000,1,58.14461135864258,8.009100914001465,-0.10000000149011612,0.0,0.8700000047683716,10,154.22999572753906,1,270426_172718.000000,-8.097102165222168,-3.062350034713745,0.2075708955526352,0.7620482444763184,2.3003501892089844,0.05287788063287735,-0.039647363126277924,-0.1967681348323822,0.07132957875728607,0.04742194712162018,16.0
2026-04-27T18:30:53.920095,270426_170402.000000,1,58.14461135864258,8.009100914001465,-0.10000000149011612,0.0,0.8700000047683716,10,154.22999572753906,1,270426_172718.000000,-8.097102165222168,-3.062350034713745,0.2075708955526352,0.7620482444763184,2.3003501892089844,0.05287788063287735,-0.039647363126277924,-0.1967681348323822,0.07132957875728607,0.04742194712162018,16.0
2026-04-27T18:30:53.920460,270426_170402.000000,1,58.14461135864258,8.009100914001465,-0.10000000149011612,0.0,0.8700000047683716,10,154.22999572753906,1,270426_172718.000000,-8.097102165222168,-3.062350034713745,0.2075708955526352,0.7620482444763184,2.3003501892089844,0.05287788063287735,-0.039647363126277924,-0.1967681348323822,0.07132957875728607,0.04742194712162018,16.0
2026-04-27T18:30:53.952316,270426_170402.000000,1,58.14461135864258,8.009100914001465,-0.10000000149011612,0.0,0.8700000047683716,10,154.22999572753906,1,270426_172718.000000,-8.097102165222168,-3.062350034713745,0.2075708955526352,0.7620482444763184,2.3003501892089844,0.05287788063287735,-0.039647363126277924,-0.1967681348323822,0.07132957875728607,0.04742194712162018,16.0
2026-04-27T18:30:57.045415,270426_170411.015625,1,58.14461135864258,8.009100914001465,-0.10000000149011612,0.0,0.8700000047683716,10,154.22999572753906,1,270426_172718.000000,-7.476045608520508,-3.561328887939453,0.1070605218410492,4.475013256072998,2.3045592308044434,0.06119648739695549,0.026236966252326965,-0.08383655548095703,0.07086137682199478,0.046241141855716705,16.0
2026-04-27T18:31:00.086795,270426_170412.000000,1,58.14461135864258,8.009100914001465,-0.10000000149011612,0.0,0.8700000047683716,10,154.22999572753906,1,270426_172718.000000,-6.834799766540527,-4.528383255004883,0.1492941975593567,1.166691541671753,2.354584217071533,0.06295306235551834,0.0592719204723835,-0.12170664221048355,0.07743056863546371,0.04613552242517471,16.0
2026-04-27T18:31:03.065901,270426_170412.984375,1,58.14461135864258,8.009100914001465,-0.10000000149011612,0.0,0.8700000047683716,10,154.22999572753906,1,270426_172748.984375,-7.025797367095947,-4.5220794677734375,0.1402117758989334,2.20414137840271,2.2312278747558594,-0.08884086459875107,0.09593261033296585,-0.05063178390264511,0.0781334936618805,0.04480808228254318,16.0
2026-04-27T18:31:06.109796,270426_170420.984375,1,58.14461135864258,8.009100914001465,-0.10000000149011612,0.0,0.8700000047683716,10,154.22999572753906,1,270426_172748.984375,-6.669191837310791,-4.716721534729004,0.1649012714624405,9.50549602508545,2.3363330364227295,0.062388017773628235,0.08305204659700394,-0.1280723214149475,0.07961267232894897,0.044989943504333496,16.0
2026-04-27T18:31:09.276903,270426_170422.000000,1,58.14461135864258,8.009100914001465,-0.10000000149011612,0.0,0.8700000047683716,10,154.22999572753906,1,270426_172748.984375,-6.690793037414551,-5.222265243530273,0.14029230177402496,1.3650639057159424,2.5057244300842285,0.05725117027759552,0.006031186319887638,-0.1279369294643402,0.0818042904138565,0.044569231569767,16.0
2026-04-27T18:31:09.277265,270426_170422.000000,1,58.14461135864258,8.009100914001465,-0.10000000149011612,0.0,0.8700000047683716,10,154.22999572753906,1,270426_172748.984375,-6.690793037414551,-5.222265243530273,0.14029230177402496,1.3650639057159424,2.5057244300842285,0.05725117027759552,0.006031186319887638,-0.1279369294643402,0.0818042904138565,0.044569231569767,16.0
2026-04-27T18:31:09.277513,270426_170422.000000,1,58.14461135864258,8.009100914001465,-0.10000000149011612,0.0,0.8700000047683716,10,154.22999572753906,1,270426_172748.984375,-6.690793037414551,-5.222265243530273,0.14029230177402496,1.3650639057159424,2.5057244300842285,0.05725117027759552,0.006031186319887638,-0.1279369294643402,0.0818042904138565,0.044569231569767,16.0
2026-04-27T18:31:09.319141,270426_170422.000000,1,58.14461135864258,8.009100914001465,-0.10000000149011612,0.0,0.8700000047683716,10,154.22999572753906,1,270426_172748.984375,-6.690793037414551,-5.222265243530273,0.14029230177402496,1.3650639057159424,2.5057244300842285,0.05725117027759552,0.006031186319887638,-0.1279369294643402,0.0818042904138565,0.044569231569767,16.0
2026-04-27T18:31:12.351200,270426_170431.015625,1,58.14461135864258,8.009100914001465,-0.10000000149011612,0.0,0.8700000047683716,10,154.22999572753906,1,270426_172748.984375,-7.055647373199463,-5.5065717697143555,0.081711046397686,2.3627662658691406,2.443875551223755,-0.011906355619430542,-0.04109540581703186,-0.06961394101381302,0.08173184841871262,0.0426044799387455,16.0
2026-04-27T18:31:15.286900,270426_170432.000000,1,58.14461135864258,8.009100914001465,-0.10000000149011612,0.0,0.8700000047683716,10,154.22999572753906,1,270426_172804.000000,-7.007994174957275,-5.616619110107422,0.20666131377220154,3.956555128097534,2.4614033699035645,0.009233112446963787,-0.05109375715255737,-0.20003269612789154,0.07523883879184723,0.03977310657501221,16.0
2026-04-27T18:31:15.287324,270426_170432.000000,1,58.14461135864258,8.009100914001465,-0.10000000149011612,0.0,0.8700000047683716,10,154.22999572753906,1,270426_172804.000000,-7.007994174957275,-5.616619110107422,0.20666131377220154,3.956555128097534,2.4614033699035645,0.009233112446963787,-0.05109375715255737,-0.20003269612789154,0.07523883879184723,0.03977310657501221,16.0
2026-04-27T18:31:15.287976,270426_170432.000000,1,58.14461135864258,8.009100914001465,-0.10000000149011612,0.0,0.8700000047683716,10,154.22999572753906,1,270426_172804.000000,-7.007994174957275,-5.616619110107422,0.20666131377220154,3.956555128097534,2.4614033699035645,0.009233112446963787,-0.05109375715255737,-0.20003269612789154,0.07523883879184723,0.03977310657501221,16.0
2026-04-27T18:31:15.305797,270426_170432.000000,1,58.14461135864258,8.009100914001465,-0.10000000149011612,0.0,0.8700000047683716,10,154.22999572753906,1,270426_172804.000000,-7.007994174957275,-5.616619110107422,0.20666131377220154,3.956555128097534,2.4614033699035645,0.009233112446963787,-0.05109375715255737,-0.20003269612789154,0.07523883879184723,0.03977310657501221,16.0
2026-04-27T18:31:18.438669,270426_170440.984375,1,58.14461135864258,8.009100914001465,-0.10000000149011612,0.0,0.8700000047683716,10,154.22999572753906,1,270426_172804.000000,-6.703267574310303,-6.274018287658691,0.19231827557086945,1.4007484912872314,2.4421536922454834,0.07882937788963318,0.02796270325779915,0.17317718267440796,0.07495762407779694,0.04039257392287254,16.0
2026-04-27T18:31:21.339477,270426_170442.000000,1,58.14461135864258,8.009100914001465,-0.10000000149011612,0.0,0.8700000047683716,10,154.22999572753906,1,270426_172804.000000,-6.84818172454834,-6.471540451049805,0.2844788134098053,4.559637546539307,2.233720541000366,-0.05702883005142212,-0.05477501451969147,-0.27326837182044983,0.07432462275028229,0.04040252044796944,16.0
2026-04-27T18:31:24.432951,270426_170451.015625,1,58.14461135864258,8.009100914001465,-0.10000000149011612,0.0,0.8700000047683716,10,154.22999572753906,1,270426_172804.000000,-7.274058818817139,-6.139613628387451,0.1471431404352188,1.8608918190002441,1.6728086471557617,-0.03731641173362732,-0.14088940620422363,-0.020217984914779663,0.06781221181154251,0.03651915863156319,14.0
2026-04-27T18:31:27.430001,270426_170500.984375,1,58.14461135864258,8.009100914001465,-0.10000000149011612,0.0,0.8700000047683716,10,154.22999572753906,1,270426_172804.000000,-6.726809024810791,-6.711597919464111,0.09279659390449524,4.260366439819336,2.265451669692993,-0.01174967922270298,0.037626203149557114,-0.08400846272706985,0.07676573842763901,0.04351142793893814,14.0
2026-04-27T18:31:30.577656,270426_170502.000000,1,58.14461135864258,8.009100914001465,-0.10000000149011612,0.0,0.8700000047683716,10,154.22999572753906,1,270426_172804.000000,-7.344949245452881,-6.517657279968262,0.13316169381141663,2.3891942501068115,2.238839864730835,-0.02909836359322071,-0.12876644730567932,0.01745067536830902,0.07679910957813263,0.04239485785365105,16.0
2026-04-27T18:31:33.550533,270426_170511.015625,1,58.14461135864258,8.009100914001465,-0.10000000149011612,0.0,0.8700000047683716,10,154.22999572753906,1,270426_172804.000000,-7.692708492279053,-6.860204696655273,0.13690271973609924,3.9228858947753906,2.6151955127716064,-0.0002198982983827591,0.019136929884552956,0.13555841147899628,0.0794382095336914,0.04258066043257713,17.0
2026-04-27T18:31:33.550828,270426_170511.015625,1,58.14461135864258,8.009100914001465,-0.10000000149011612,0.0,0.8700000047683716,10,154.22999572753906,1,270426_172804.000000,-7.692708492279053,-6.860204696655273,0.13690271973609924,3.9228858947753906,2.6151955127716064,-0.0002198982983827591,0.019136929884552956,0.13555841147899628,0.0794382095336914,0.04258066043257713,17.0
2026-04-27T18:31:33.572789,270426_170511.015625,1,58.14461135864258,8.009100914001465,-0.10000000149011612,0.0,0.8700000047683716,10,154.22999572753906,1,270426_172804.000000,-7.692708492279053,-6.860204696655273,0.13690271973609924,3.9228858947753906,2.6151955127716064,-0.0002198982983827591,0.019136929884552956,0.13555841147899628,0.0794382095336914,0.04258066043257713,17.0
2026-04-27T18:31:36.645303,270426_170512.000000,1,58.14461135864258,8.009100914001465,-0.10000000149011612,0.0,0.8700000047683716,10,154.22999572753906,1,270426_172834.000000,-8.295319557189941,-6.0392165184021,0.1846199929714203,2.1297669410705566,2.665670871734619,-0.06661354005336761,-0.15822002291679382,0.06792356073856354,0.07609857618808746,0.05003634840250015,17.0
2026-04-27T18:31:39.608642,270426_170520.984375,1,58.14461135864258,8.009100914001465,-0.10000000149011612,0.0,0.8700000047683716,10,154.22999572753906,1,270426_172834.000000,-8.64443588256836,-6.238556385040283,0.19186434149742126,2.362698554992676,2.4513769149780273,-0.05136539787054062,-0.1772136241197586,-0.05261990427970886,0.07263783365488052,0.048211339861154556,15.0
2026-04-27T18:31:42.803869,270426_170522.000000,1,58.14461135864258,8.009100914001465,-0.10000000149011612,0.0,0.8700000047683716,10,154.22999572753906,1,270426_172834.000000,-8.356497764587402,-6.830069541931152,0.4445072114467621,7.139625549316406,2.2465624809265137,-0.17705875635147095,0.2890753746032715,0.2875279188156128,0.08079065382480621,0.05105140805244446,15.0
2026-04-27T18:31:45.813347,270426_170531.015625,1,58.14461135864258,8.009100914001465,-0.10000000149011612,0.0,0.8700000047683716,10,154.22999572753906,1,270426_172835.015625,-6.775954246520996,-4.398177146911621,0.2552467882633209,2.5961763858795166,2.1236572265625,-0.15933586657047272,0.1481495052576065,0.1334717869758606,0.08122677356004715,0.058540213853120804,15.0
2026-04-27T18:31:48.797796,270426_170551.015625,1,58.14461135864258,8.009100914001465,-0.10000000149011612,0.0,0.8700000047683716,10,154.22999572753906,1,270426_172835.015625,-7.1128034591674805,-2.8637502193450928,0.23788690567016602,0.6347857713699341,1.891251802444458,-0.18263176083564758,-0.10534530133008957,0.11017342656850815,0.07749415189027786,0.05904773250222206,15.0
2026-04-27T18:31:51.827486,270426_170600.984375,1,58.14461135864258,8.009100914001465,-0.10000000149011612,0.0,0.8700000047683716,10,154.22999572753906,1,270426_172848.984375,-7.259817123413086,-1.1941229104995728,0.1552928388118744,1.6144418716430664,2.1237902641296387,-0.07797008752822876,-0.035968028008937836,0.12939409911632538,0.08005207031965256,0.058422256261110306,15.0
2026-04-27T18:31:54.835709,270426_170610.000000,1,58.14461135864258,8.009100914001465,-0.10000000149011612,0.0,0.8700000047683716,10,154.22999572753906,1,270426_172848.984375,-7.734947204589844,0.27635061740875244,0.12698782980442047,2.1851675510406494,2.0524251461029053,-0.09377839416265488,-0.07920289784669876,0.03253338485956192,0.07740476727485657,0.05867445096373558,15.0
2026-04-27T18:31:57.968017,270426_170619.015625,1,58.14461135864258,8.009100914001465,-0.10000000149011612,0.0,0.8700000047683716,10,154.22999572753906,1,270426_172848.984375,-6.918588161468506,2.34515118598938,0.15088437497615814,4.467493534088135,1.8646554946899414,-0.13072390854358673,0.07115020602941513,-0.024799220263957977,0.06486864387989044,0.05827035754919052,13.0
2026-04-27T18:32:01.004354,270426_170628.984375,1,58.14461135864258,8.009100914001465,-0.10000000149011612,0.0,0.8700000047683716,10,154.22999572753906,1,270426_172848.984375,-6.7462873458862305,2.382420063018799,0.1950441300868988,0.552964448928833,1.87771737575531,-0.08513320982456207,-0.019950183108448982,0.17434599995613098,0.06221015006303787,0.04684143885970116,13.0
2026-04-27T18:32:01.004658,270426_170628.984375,1,58.14461135864258,8.009100914001465,-0.10000000149011612,0.0,0.8700000047683716,10,154.22999572753906,1,270426_172848.984375,-6.7462873458862305,2.382420063018799,0.1950441300868988,0.552964448928833,1.87771737575531,-0.08513320982456207,-0.019950183108448982,0.17434599995613098,0.06221015006303787,0.04684143885970116,13.0
2026-04-27T18:32:01.005154,270426_170628.984375,1,58.14461135864258,8.009100914001465,-0.10000000149011612,0.0,0.8700000047683716,10,154.22999572753906,1,270426_172848.984375,-6.7462873458862305,2.382420063018799,0.1950441300868988,0.552964448928833,1.87771737575531,-0.08513320982456207,-0.019950183108448982,0.17434599995613098,0.06221015006303787,0.04684143885970116,13.0
2026-04-27T18:32:01.065957,270426_170628.984375,1,58.14461135864258,8.009100914001465,-0.10000000149011612,0.0,0.8700000047683716,10,154.22999572753906,1,270426_172848.984375,-6.7462873458862305,2.382420063018799,0.1950441300868988,0.552964448928833,1.87771737575531,-0.08513320982456207,-0.019950183108448982,0.17434599995613098,0.06221015006303787,0.04684143885970116,13.0
2026-04-27T18:32:04.069887,270426_170630.000000,1,58.14461135864258,8.009100914001465,-0.10000000149011612,0.0,0.8700000047683716,10,154.22999572753906,1,270426_172848.984375,-6.651654243469238,3.5254993438720703,0.29487648606300354,3.5385098457336426,1.8812849521636963,-0.22845380008220673,-0.039164457470178604,0.1822831928730011,0.0713803619146347,0.04628688469529152,13.0
2026-04-27T18:32:07.013633,270426_170639.015625,1,58.14461135864258,8.009100914001465,-0.10000000149011612,0.0,0.8700000047683716,10,154.22999572753906,1,270426_172904.000000,-6.755030155181885,3.252199649810791,0.09784986078739166,1.926454782485962,1.5446221828460693,0.019566740840673447,-0.08486934751272202,0.04459743946790695,0.06618139147758484,0.03969379514455795,15.0
2026-04-27T18:32:10.092515,270426_170640.000000,1,58.14461135864258,8.009100914001465,-0.10000000149011612,0.0,0.8700000047683716,10,154.22999572753906,1,270426_172904.000000,-6.94414758682251,3.6433699131011963,0.2150162160396576,1.1823205947875977,1.5477339029312134,-0.0026553161442279816,-0.06465417146682739,-0.20504817366600037,0.058425173163414,0.034224070608615875,15.0
2026-04-27T18:32:13.170694,270426_170658.000000,1,58.14461135864258,8.009100914001465,-0.10000000149011612,0.0,0.8700000047683716,10,154.22999572753906,1,270426_172904.000000,-6.445303916931152,3.8594751358032227,0.09448840469121933,3.975665330886841,1.9775848388671875,-0.01438079308718443,0.07949087023735046,-0.049014829099178314,0.06841198354959488,0.03660057485103607,15.0
2026-04-27T18:32:16.247669,270426_170659.015625,1,58.14461135864258,8.009100914001465,-0.10000000149011612,0.0,0.8700000047683716,10,154.22999572753906,1,270426_172904.000000,-5.546700477600098,4.714178085327148,0.1374928057193756,3.438509941101074,1.8486920595169067,-0.030205076560378075,0.1321878582239151,-0.02276618406176567,0.07103818655014038,0.03444616496562958,16.0
2026-04-27T18:32:19.206134,270426_170707.015625,1,58.14461135864258,8.009100914001465,-0.10000000149011612,0.0,0.8700000047683716,10,154.22999572753906,1,270426_172904.000000,-5.433741092681885,4.385614395141602,0.18227383494377136,3.645392656326294,1.9433621168136597,0.10381501913070679,0.09508896619081497,-0.11577685922384262,0.07026857882738113,0.03784475103020668,16.0
2026-04-27T18:32:22.288827,270426_170708.000000,1,58.14461135864258,8.009100914001465,-0.10000000149011612,0.0,0.8700000047683716,10,154.22999572753906,1,270426_172919.015625,-4.77250862121582,4.55913782119751,0.2472686767578125,8.138776779174805,2.060790538787842,0.11136581748723984,-0.05923483520746231,-0.212675079703331,0.0738075003027916,0.0381266288459301,16.0
2026-04-27T18:32:25.351712,270426_170716.000000,1,58.14461135864258,8.009100914001465,-0.10000000149011612,0.0,0.8700000047683716,10,154.22999572753906,1,270426_172919.015625,-4.834683895111084,5.186786651611328,0.17129208147525787,2.240802526473999,2.1608753204345703,-0.014879552647471428,-0.1400594711303711,-0.09748292714357376,0.07865210622549057,0.04475047439336777,14.0
2026-04-27T18:32:28.335815,270426_170716.984375,1,58.14461135864258,8.009100914001465,-0.10000000149011612,0.0,0.8700000047683716,10,154.22999572753906,1,270426_172919.015625,-4.287017822265625,4.982804775238037,0.22745873034000397,0.928156852722168,1.9162386655807495,0.050271835178136826,0.16126815974712372,-0.15232466161251068,0.0671762228012085,0.04417123645544052,16.0
2026-04-27T18:32:31.396519,270426_170724.984375,1,58.14461135864258,8.009100914001465,-0.10000000149011612,0.0,0.8700000047683716,10,154.22999572753906,1,270426_172919.015625,-4.778295516967773,5.0014119148254395,0.14005230367183685,1.5775272846221924,1.923612356185913,-0.025409113615751266,-0.03569884970784187,-0.13302111625671387,0.06379582732915878,0.039953574538230896,15.0
2026-04-27T18:32:34.485414,270426_170726.000000,1,58.14461135864258,8.009100914001465,-0.10000000149011612,0.0,0.8700000047683716,10,154.22999572753906,1,270426_172920.000000,-4.701525688171387,4.810233116149902,0.1454254686832428,3.785367012023926,1.8731719255447388,0.06191687285900116,-0.09797288477420807,-0.08784179389476776,0.06374608725309372,0.04102262854576111,15.0
2026-04-27T18:32:34.485668,270426_170726.000000,1,58.14461135864258,8.009100914001465,-0.10000000149011612,0.0,0.8700000047683716,10,154.22999572753906,1,270426_172920.000000,-4.701525688171387,4.810233116149902,0.1454254686832428,3.785367012023926,1.8731719255447388,0.06191687285900116,-0.09797288477420807,-0.08784179389476776,0.06374608725309372,0.04102262854576111,15.0
2026-04-27T18:32:34.485838,270426_170726.000000,1,58.14461135864258,8.009100914001465,-0.10000000149011612,0.0,0.8700000047683716,10,154.22999572753906,1,270426_172920.000000,-4.701525688171387,4.810233116149902,0.1454254686832428,3.785367012023926,1.8731719255447388,0.06191687285900116,-0.09797288477420807,-0.08784179389476776,0.06374608725309372,0.04102262854576111,15.0
2026-04-27T18:32:34.499796,270426_170726.000000,1,58.14461135864258,8.009100914001465,-0.10000000149011612,0.0,0.8700000047683716,10,154.22999572753906,1,270426_172920.000000,-4.701525688171387,4.810233116149902,0.1454254686832428,3.785367012023926,1.8731719255447388,0.06191687285900116,-0.09797288477420807,-0.08784179389476776,0.06374608725309372,0.04102262854576111,15.0
2026-04-27T18:32:37.656413,270426_170734.000000,1,58.14461135864258,8.009100914001465,-0.10000000149011612,0.0,0.8700000047683716,10,248.74000549316406,1,270426_172920.000000,-4.6682448387146,4.506758689880371,0.2154880166053772,2.679049491882324,2.061380386352539,0.009489714168012142,0.001374460756778717,0.21527457237243652,0.062259502708911896,0.04342804104089737,15.0
2026-04-27T18:32:40.623138,270426_170735.015625,1,58.14461135864258,8.009100914001465,-0.10000000149011612,0.0,0.8700000047683716,10,248.74000549316406,1,270426_172920.000000,-4.692105770111084,4.103011608123779,0.13007326424121857,2.20654296875,1.8464858531951904,-0.005656701512634754,-0.1235961988568306,0.04013773798942566,0.0514470711350441,0.034895334392786026,15.0
2026-04-27T18:32:40.623745,270426_170735.015625,1,58.14461135864258,8.009100914001465,-0.10000000149011612,0.0,0.8700000047683716,10,248.74000549316406,1,270426_172920.000000,-4.692105770111084,4.103011608123779,0.13007326424121857,2.20654296875,1.8464858531951904,-0.005656701512634754,-0.1235961988568306,0.04013773798942566,0.0514470711350441,0.034895334392786026,15.0
2026-04-27T18:32:40.623976,270426_170735.015625,1,58.14461135864258,8.009100914001465,-0.10000000149011612,0.0,0.8700000047683716,10,248.74000549316406,1,270426_172920.000000,-4.692105770111084,4.103011608123779,0.13007326424121857,2.20654296875,1.8464858531951904,-0.005656701512634754,-0.1235961988568306,0.04013773798942566,0.0514470711350441,0.034895334392786026,15.0
2026-04-27T18:32:40.671664,270426_170735.015625,1,58.14461135864258,8.009100914001465,-0.10000000149011612,0.0,0.8700000047683716,10,248.74000549316406,1,270426_172920.000000,-4.692105770111084,4.103011608123779,0.13007326424121857,2.20654296875,1.8464858531951904,-0.005656701512634754,-0.1235961988568306,0.04013773798942566,0.0514470711350441,0.034895334392786026,15.0
2026-04-27T18:32:43.576386,270426_170743.015625,1,58.14461135864258,8.009100914001465,-0.10000000149011612,0.0,0.8700000047683716,10,248.74000549316406,1,270426_172920.000000,-4.535048484802246,3.968641996383667,0.2861112356185913,3.444542646408081,2.017505168914795,-0.028834842145442963,-0.03770742565393448,-0.28214597702026367,0.058831095695495605,0.037777796387672424,15.0
2026-04-27T18:32:46.675988,270426_170752.000000,1,58.14461135864258,8.009100914001465,-0.10000000149011612,0.0,0.8700000047683716,10,248.74000549316406,1,270426_172920.000000,-5.147708892822266,3.257124185562134,0.16633377969264984,2.6516592502593994,2.1183435916900635,-0.04298312962055206,-0.07493679225444794,0.1421402543783188,0.05891736224293709,0.04033821076154709,16.0
2026-04-27T18:32:46.677380,270426_170752.000000,1,58.14461135864258,8.009100914001465,-0.10000000149011612,0.0,0.8700000047683716,10,248.74000549316406,1,270426_172920.000000,-5.147708892822266,3.257124185562134,0.16633377969264984,2.6516592502593994,2.1183435916900635,-0.04298312962055206,-0.07493679225444794,0.1421402543783188,0.05891736224293709,0.04033821076154709,16.0
2026-04-27T18:32:46.678683,270426_170752.000000,1,58.14461135864258,8.009100914001465,-0.10000000149011612,0.0,0.8700000047683716,10,248.74000549316406,1,270426_172920.000000,-5.147708892822266,3.257124185562134,0.16633377969264984,2.6516592502593994,2.1183435916900635,-0.04298312962055206,-0.07493679225444794,0.1421402543783188,0.05891736224293709,0.04033821076154709,16.0
2026-04-27T18:32:49.683368,270426_170752.984375,1,58.14461135864258,8.009100914001465,-0.10000000149011612,0.0,0.8700000047683716,10,248.74000549316406,1,270426_172935.015625,-5.36244535446167,3.2927072048187256,0.09664807468652725,5.043265342712402,2.0428590774536133,0.017929192632436752,-0.0949704498052597,-8.711591362953186e-05,0.060191959142684937,0.04012712836265564,16.0
2026-04-27T18:32:52.743339,270426_170800.984375,1,58.14461135864258,8.009100914001465,-0.10000000149011612,0.0,0.8700000047683716,10,248.74000549316406,1,270426_172935.015625,-5.83726692199707,2.5966310501098633,0.29691118001937866,2.22037935256958,2.039642810821533,0.0995420515537262,-0.07354892790317535,-0.26988548040390015,0.06434030085802078,0.04330367594957352,16.0
2026-04-27T18:32:52.744097,270426_170800.984375,1,58.14461135864258,8.009100914001465,-0.10000000149011612,0.0,0.8700000047683716,10,248.74000549316406,1,270426_172935.015625,-5.83726692199707,2.5966310501098633,0.29691118001937866,2.22037935256958,2.039642810821533,0.0995420515537262,-0.07354892790317535,-0.26988548040390015,0.06434030085802078,0.04330367594957352,16.0
2026-04-27T18:32:55.763648,270426_170808.984375,1,58.14461135864258,8.009100914001465,-0.10000000149011612,0.0,0.8700000047683716,10,248.74000549316406,1,270426_172935.015625,-6.119668483734131,1.7872878313064575,0.11814119666814804,4.1897292137146,2.2605459690093994,0.03952541574835777,-0.10851028561592102,-0.02491188794374466,0.06504804641008377,0.046039190143346786,14.0
2026-04-27T18:32:55.763979,270426_170808.984375,1,58.14461135864258,8.009100914001465,-0.10000000149011612,0.0,0.8700000047683716,10,248.74000549316406,1,270426_172935.015625,-6.119668483734131,1.7872878313064575,0.11814119666814804,4.1897292137146,2.2605459690093994,0.03952541574835777,-0.10851028561592102,-0.02491188794374466,0.06504804641008377,0.046039190143346786,14.0
2026-04-27T18:32:55.764213,270426_170808.984375,1,58.14461135864258,8.009100914001465,-0.10000000149011612,0.0,0.8700000047683716,10,248.74000549316406,1,270426_172935.015625,-6.119668483734131,1.7872878313064575,0.11814119666814804,4.1897292137146,2.2605459690093994,0.03952541574835777,-0.10851028561592102,-0.02491188794374466,0.06504804641008377,0.046039190143346786,14.0
2026-04-27T18:32:55.854880,270426_170808.984375,1,58.14461135864258,8.009100914001465,-0.10000000149011612,0.0,0.8700000047683716,10,248.74000549316406,1,270426_172935.015625,-6.119668483734131,1.7872878313064575,0.11814119666814804,4.1897292137146,2.2605459690093994,0.03952541574835777,-0.10851028561592102,-0.02491188794374466,0.06504804641008377,0.046039190143346786,14.0
2026-04-27T18:32:58.854666,270426_170826.000000,1,58.14461135864258,8.009100914001465,-0.10000000149011612,0.0,0.8100000023841858,11,248.74000549316406,1,270426_172935.015625,-6.117976188659668,1.4868366718292236,0.18115417659282684,1.6736973524093628,1.9803870916366577,0.07047586143016815,-0.05076799914240837,0.1589735746383667,0.059886831790208817,0.04280782863497734,14.0
2026-04-27T18:33:01.827156,270426_170827.015625,1,58.14461135864258,8.009100914001465,-0.10000000149011612,0.0,0.8100000023841858,11,248.74000549316406,1,270426_172935.015625,-6.652034282684326,1.2746514081954956,0.18670980632305145,3.8454084396362305,2.0202796459198,0.08119335770606995,-0.15205888450145721,0.0717376098036766,0.06176236644387245,0.04467329382896423,16.0
2026-04-27T18:33:05.125583,270426_170835.015625,1,58.14461135864258,8.009100914001465,-0.10000000149011612,0.0,0.8100000023841858,11,248.74000549316406,1,270426_172935.015625,-6.714169025421143,1.4156348705291748,0.16585110127925873,2.6348679065704346,1.9273655414581299,-0.0954665094614029,-0.10674981027841568,0.08364933729171753,0.05576919764280319,0.04320305213332176,14.0
2026-04-27T18:33:07.947612,270426_170836.000000,1,58.14461135864258,8.009100914001465,-0.10000000149011612,0.0,0.8100000023841858,11,248.74000549316406,1,270426_172935.015625,-6.3462138175964355,1.1638126373291016,0.14524339139461517,2.7669451236724854,2.0005180835723877,0.023669011890888214,0.09520401805639267,-0.10710563510656357,0.059315409511327744,0.041848234832286835,16.0
2026-04-27T18:33:11.031309,270426_170844.984375,1,58.14461135864258,8.009100914001465,-0.10000000149011612,0.0,0.8100000023841858,11,248.74000549316406,1,270426_173004.000000,-6.719655990600586,1.0237845182418823,0.19826950132846832,4.90011739730835,1.825947880744934,-0.029555415734648705,-0.05304527282714844,-0.18874181807041168,0.060345232486724854,0.04307398200035095,16.0
2026-04-27T18:33:14.088861,270426_170852.984375,1,58.14461135864258,8.009100914001465,-0.10000000149011612,0.0,0.8100000023841858,11,248.74000549316406,1,270426_173004.000000,-6.7840776443481445,1.180289626121521,0.307216078042984,3.544024705886841,1.8551632165908813,-0.06952794641256332,0.03558281064033508,0.29712191224098206,0.06583009660243988,0.044301837682724,13.0
2026-04-27T18:33:17.072905,270426_170900.984375,1,58.14461135864258,8.009100914001465,-0.10000000149011612,0.0,0.8100000023841858,11,248.74000549316406,1,270426_173004.000000,-6.670917987823486,1.044410228729248,0.2248132973909378,1.041986346244812,1.7549247741699219,0.10422204434871674,0.02043195813894272,0.19814468920230865,0.0626993402838707,0.043977413326501846,11.0
2026-04-27T18:33:20.158849,270426_170910.000000,1,58.14461135864258,8.009100914001465,-0.10000000149011612,0.0,0.8100000023841858,12,248.74000549316406,1,270426_173004.000000,-6.480937957763672,1.0482157468795776,0.14961624145507812,1.8674510717391968,1.709177851676941,0.0885244756937027,0.061832696199417114,0.10356231778860092,0.06054648756980896,0.04073195904493332,13.0
2026-04-27T18:33:20.159119,270426_170910.000000,1,58.14461135864258,8.009100914001465,-0.10000000149011612,0.0,0.8100000023841858,12,248.74000549316406,1,270426_173004.000000,-6.480937957763672,1.0482157468795776,0.14961624145507812,1.8674510717391968,1.709177851676941,0.0885244756937027,0.061832696199417114,0.10356231778860092,0.06054648756980896,0.04073195904493332,13.0
2026-04-27T18:33:23.215316,270426_170911.015625,1,58.14461135864258,8.009100914001465,-0.10000000149011612,0.0,0.8100000023841858,12,248.74000549316406,1,270426_173019.015625,-6.566309452056885,0.7297781109809875,0.3799375891685486,3.7110226154327393,1.7018163204193115,0.0044427537359297276,-0.013157626613974571,-0.3796836733818054,0.0693327784538269,0.044985681772232056,13.0
2026-04-27T18:33:26.186413,270426_170919.015625,1,58.14461135864258,8.009100914001465,-0.10000000149011612,0.0,0.8100000023841858,12,248.74000549316406,1,270426_173019.015625,-6.201228141784668,0.5358255505561829,0.28795406222343445,3.2700607776641846,2.027876377105713,-0.002794457832351327,-0.053593091666698456,-0.28290900588035583,0.07796188443899155,0.04890377074480057,13.0
2026-04-27T18:33:29.257847,270426_170927.015625,1,58.14461135864258,8.009100914001465,-0.10000000149011612,0.0,0.8100000023841858,12,248.74000549316406,1,270426_173019.015625,-6.4273905754089355,0.08721917867660522,0.27598121762275696,2.5068604946136475,2.2135212421417236,0.03256291523575783,-0.03252173960208893,0.2721169590950012,0.08109627664089203,0.05349486693739891,13.0
2026-04-27T18:33:29.258209,270426_170927.015625,1,58.14461135864258,8.009100914001465,-0.10000000149011612,0.0,0.8100000023841858,12,248.74000549316406,1,270426_173019.015625,-6.4273905754089355,0.08721917867660522,0.27598121762275696,2.5068604946136475,2.2135212421417236,0.03256291523575783,-0.03252173960208893,0.2721169590950012,0.08109627664089203,0.05349486693739891,13.0
2026-04-27T18:33:29.258458,270426_170927.015625,1,58.14461135864258,8.009100914001465,-0.10000000149011612,0.0,0.8100000023841858,12,248.74000549316406,1,270426_173019.015625,-6.4273905754089355,0.08721917867660522,0.27598121762275696,2.5068604946136475,2.2135212421417236,0.03256291523575783,-0.03252173960208893,0.2721169590950012,0.08109627664089203,0.05349486693739891,13.0
2026-04-27T18:33:29.281215,270426_170927.015625,1,58.14461135864258,8.009100914001465,-0.10000000149011612,0.0,0.8100000023841858,12,248.74000549316406,1,270426_173019.015625,-6.4273905754089355,0.08721917867660522,0.27598121762275696,2.5068604946136475,2.2135212421417236,0.03256291523575783,-0.03252173960208893,0.2721169590950012,0.08109627664089203,0.05349486693739891,13.0
2026-04-27T18:33:32.352288,270426_170928.000000,1,58.14461135864258,8.009100914001465,-0.10000000149011612,0.0,0.8100000023841858,12,248.74000549316406,1,270426_173019.015625,-6.6505022048950195,-0.20899340510368347,0.11431969702243805,2.623947858810425,2.125822067260742,0.009556750766932964,0.012882723473012447,0.11318875849246979,0.08730707317590714,0.04890573024749756,15.0
2026-04-27T18:33:35.407917,270426_170936.000000,1,58.14461135864258,8.009100914001465,-0.10000000149011612,0.0,0.8100000023841858,12,248.74000549316406,1,270426_173019.015625,-6.382058620452881,-0.17000697553157806,0.2955687940120697,1.108960747718811,2.292997360229492,-0.03344179317355156,0.03535078838467598,0.2915353775024414,0.08669012039899826,0.05403026193380356,15.0
2026-04-27T18:33:38.466460,270426_170936.984375,1,58.14461135864258,8.009100914001465,-0.10000000149011612,0.0,0.8100000023841858,12,248.74000549316406,1,270426_173034.000000,-6.281279563903809,0.7112802863121033,0.19330115616321564,4.577177047729492,2.0223324298858643,-0.1085389107465744,0.14198939502239227,0.0736454576253891,0.07499447464942932,0.04647252708673477,15.0
2026-04-27T18:33:41.442543,270426_170944.984375,1,58.14461135864258,8.009100914001465,-0.10000000149011612,0.0,0.8100000023841858,12,248.74000549316406,1,270426_173034.000000,-5.928436756134033,1.3439698219299316,0.11727306246757507,3.077348232269287,2.0124709606170654,-0.07240698486566544,0.0877358615398407,-0.028506480157375336,0.06526196748018265,0.040257588028907776,15.0
2026-04-27T18:33:44.503647,270426_170946.000000,1,58.14461135864258,8.009100914001465,-0.10000000149011612,0.0,0.8100000023841858,12,248.74000549316406,1,270426_173034.000000,-5.761531829833984,1.356881022453308,0.1281488686800003,2.3909478187561035,1.8379874229431152,0.022647839039564133,0.03573011979460716,-0.1209651529788971,0.06340665370225906,0.03901774808764458,16.0
2026-04-27T18:33:47.545581,270426_170954.000000,1,58.14461135864258,8.009100914001465,-0.10000000149011612,0.0,0.8100000023841858,12,248.74000549316406,1,270426_173034.000000,-6.326699256896973,2.26173734664917,0.1617245227098465,1.6739389896392822,1.6916929483413696,-0.04786837846040726,-0.0016609271988272667,-0.15446904301643372,0.05333169549703598,0.03808770328760147,16.0
2026-04-27T18:33:50.624450,270426_170955.015625,1,58.14461135864258,8.009100914001465,-0.10000000149011612,0.0,0.8100000023841858,12,248.74000549316406,1,270426_173048.984375,-6.2100348472595215,2.6102447509765625,0.1302039623260498,4.605361461639404,1.719758152961731,-0.09098941832780838,-0.010518564842641354,0.09253840893507004,0.053145986050367355,0.03704196587204933,16.0
2026-04-27T18:33:53.659478,270426_171003.015625,1,58.14461135864258,8.009100914001465,-0.10000000149011612,0.0,0.8600000143051147,11,248.74000549316406,1,270426_173048.984375,-5.365511894226074,2.432992458343506,0.12184396386146545,4.016788482666016,2.1307613849639893,0.04663384333252907,-0.005890532862395048,-0.11241235584020615,0.07024038583040237,0.041758883744478226,16.0
2026-04-27T18:33:56.798092,270426_171012.000000,1,58.14461135864258,8.009100914001465,-0.10000000149011612,0.0,0.8100000023841858,12,248.74000549316406,1,270426_173048.984375,-4.935169696807861,2.108548641204834,0.14764061570167542,2.280749559402466,2.233278274536133,0.06224547326564789,-0.03641559183597565,0.1288299411535263,0.0786769688129425,0.04630085080862045,16.0
2026-04-27T18:33:59.682849,270426_171020.000000,1,58.14461135864258,8.009100914001465,-0.10000000149011612,0.0,0.8100000023841858,12,248.74000549316406,1,270426_173048.984375,-4.813204288482666,2.3538060188293457,0.21447472274303436,1.6196092367172241,2.150419235229492,-0.02038276381790638,0.03225938603281975,0.2110527902841568,0.0817364975810051,0.046191874891519547,16.0
2026-04-27T18:34:02.851842,270426_171020.984375,1,58.14461135864258,8.009100914001465,-0.10000000149011612,0.0,0.8100000023841858,12,248.74000549316406,1,270426_173048.984375,-4.1963887214660645,2.3743603229522705,0.13049457967281342,3.9476189613342285,2.1966793537139893,0.11372210085391998,0.061636004596948624,-0.01723727025091648,0.08601778000593185,0.04779955372214317,16.0
2026-04-27T18:34:05.813473,270426_171028.984375,1,58.14461135864258,8.009100914001465,-0.10000000149011612,0.0,0.8100000023841858,12,248.74000549316406,1,270426_173050.000000,-3.919917583465576,2.8499326705932617,0.12609486281871796,3.15254807472229,1.919639229774475,-0.09859444946050644,0.008378995582461357,-0.07815910130739212,0.08076296746730804,0.042999058961868286,16.0
2026-04-27T18:34:08.882070,270426_171030.000000,1,58.14461135864258,8.009100914001465,-0.10000000149011612,0.0,0.8100000023841858,12,248.74000549316406,1,270426_173050.000000,-4.013259410858154,3.0096728801727295,0.19273130595684052,8.372049331665039,1.9450687170028687,-0.06955224275588989,-0.05999823287129402,-0.16943450272083282,0.07280994951725006,0.040448155254125595,16.0
2026-04-27T18:34:11.925220,270426_171038.000000,1,58.14461135864258,8.009100914001465,-0.10000000149011612,0.0,0.8100000023841858,12,248.74000549316406,1,270426_173050.000000,-4.025234222412109,2.648524045944214,0.179961159825325,1.0807628631591797,2.0412044525146484,0.05144081637263298,-0.004291053861379623,-0.17239908874034882,0.07036267966032028,0.03738103061914444,16.0
2026-04-27T18:34:11.925526,270426_171038.000000,1,58.14461135864258,8.009100914001465,-0.10000000149011612,0.0,0.8100000023841858,12,248.74000549316406,1,270426_173050.000000,-4.025234222412109,2.648524045944214,0.179961159825325,1.0807628631591797,2.0412044525146484,0.05144081637263298,-0.004291053861379623,-0.17239908874034882,0.07036267966032028,0.03738103061914444,16.0
2026-04-27T18:34:11.927043,270426_171038.000000,1,58.14461135864258,8.009100914001465,-0.10000000149011612,0.0,0.8100000023841858,12,248.74000549316406,1,270426_173050.000000,-4.025234222412109,2.648524045944214,0.179961159825325,1.0807628631591797,2.0412044525146484,0.05144081637263298,-0.004291053861379623,-0.17239908874034882,0.07036267966032028,0.03738103061914444,16.0
2026-04-27T18:34:11.950294,270426_171038.000000,1,58.14461135864258,8.009100914001465,-0.10000000149011612,0.0,0.8100000023841858,12,248.74000549316406,1,270426_173050.000000,-4.025234222412109,2.648524045944214,0.179961159825325,1.0807628631591797,2.0412044525146484,0.05144081637263298,-0.004291053861379623,-0.17239908874034882,0.07036267966032028,0.03738103061914444,16.0
2026-04-27T18:34:14.928282,270426_171046.000000,1,58.14461135864258,8.009100914001465,-0.10000000149011612,0.0,0.8100000023841858,12,248.74000549316406,1,270426_173050.000000,-4.768655300140381,2.5759811401367188,0.205355703830719,2.082441568374634,1.9492899179458618,-0.011932376772165298,-0.059471890330314636,-0.19619295001029968,0.0626518651843071,0.03830701485276222,14.0
2026-04-27T18:34:17.999613,270426_171055.015625,1,58.14461135864258,8.009100914001465,-0.10000000149011612,0.0,0.8100000023841858,12,248.74000549316406,1,270426_173050.000000,-4.807850360870361,3.319465398788452,0.20850001275539398,3.1073124408721924,2.0027894973754883,-0.07198367267847061,-0.12817083299160004,0.14786088466644287,0.06089870259165764,0.03722364455461502,14.0
2026-04-27T18:34:21.000299,270426_171056.000000,1,58.14461135864258,8.009100914001465,-0.10000000149011612,0.0,0.8100000023841858,12,248.74000549316406,1,270426_173050.000000,-5.6052632331848145,2.9831032752990723,0.08974885195493698,3.866560935974121,1.8926199674606323,-0.03148997202515602,-0.06048443168401718,0.05835128575563431,0.06384821236133575,0.040221378207206726,16.0
2026-04-27T18:34:24.203421,270426_171112.984375,1,58.14461135864258,8.009100914001465,-0.10000000149011612,0.0,0.8100000023841858,12,248.74000549316406,1,270426_173050.000000,-5.029192924499512,3.6027588844299316,0.29822784662246704,2.6265249252319336,1.969698429107666,-0.12947283685207367,0.1652551293373108,0.21181918680667877,0.07008973509073257,0.04127815365791321,14.0
2026-04-27T18:34:27.127258,270426_171122.000000,1,58.14461135864258,8.009100914001465,-0.10000000149011612,0.0,0.8100000023841858,12,248.74000549316406,1,270426_173120.000000,-4.665904521942139,2.684051275253296,0.33928000926971436,5.6780805587768555,1.9301003217697144,-0.06295894831418991,0.2520800530910492,0.21818053722381592,0.0742451399564743,0.046611033380031586,16.0
2026-04-27T18:34:27.127605,270426_171122.000000,1,58.14461135864258,8.009100914001465,-0.10000000149011612,0.0,0.8100000023841858,12,248.74000549316406,1,270426_173120.000000,-4.665904521942139,2.684051275253296,0.33928000926971436,5.6780805587768555,1.9301003217697144,-0.06295894831418991,0.2520800530910492,0.21818053722381592,0.0742451399564743,0.046611033380031586,16.0
2026-04-27T18:34:27.127814,270426_171122.000000,1,58.14461135864258,8.009100914001465,-0.10000000149011612,0.0,0.8100000023841858,12,248.74000549316406,1,270426_173120.000000,-4.665904521942139,2.684051275253296,0.33928000926971436,5.6780805587768555,1.9301003217697144,-0.06295894831418991,0.2520800530910492,0.21818053722381592,0.0742451399564743,0.046611033380031586,16.0
2026-04-27T18:34:30.287785,270426_171139.015625,1,58.14461135864258,8.009100914001465,-0.10000000149011612,0.0,0.8100000023841858,12,248.74000549316406,1,270426_173120.000000,-5.003131866455078,2.5636074542999268,0.252571702003479,0.465145081281662,1.9451416730880737,0.033476121723651886,-0.10599181056022644,0.22679847478866577,0.07540477067232132,0.04895472526550293,16.0
2026-04-27T18:34:30.288210,270426_171139.015625,1,58.14461135864258,8.009100914001465,-0.10000000149011612,0.0,0.8100000023841858,12,248.74000549316406,1,270426_173120.000000,-5.003131866455078,2.5636074542999268,0.252571702003479,0.465145081281662,1.9451416730880737,0.033476121723651886,-0.10599181056022644,0.22679847478866577,0.07540477067232132,0.04895472526550293,16.0
2026-04-27T18:34:30.288510,270426_171139.015625,1,58.14461135864258,8.009100914001465,-0.10000000149011612,0.0,0.8100000023841858,12,248.74000549316406,1,270426_173120.000000,-5.003131866455078,2.5636074542999268,0.252571702003479,0.465145081281662,1.9451416730880737,0.033476121723651886,-0.10599181056022644,0.22679847478866577,0.07540477067232132,0.04895472526550293,16.0
2026-04-27T18:34:33.179295,270426_171148.000000,1,58.14461135864258,8.009100914001465,-0.10000000149011612,0.0,0.8100000023841858,12,248.74000549316406,1,270426_173120.000000,-5.1800994873046875,2.9091594219207764,0.06950336694717407,1.407122015953064,1.891127586364746,0.0036518920678645372,-0.0007270057685673237,0.06940355896949768,0.0838489904999733,0.05057067051529884,16.0
2026-04-27T18:34:36.336750,270426_171148.984375,1,58.14461135864258,8.009100914001465,-0.10000000149011612,0.0,0.8100000023841858,12,248.74000549316406,1,270426_173120.000000,-4.01917839050293,2.4212045669555664,0.20069116353988647,2.5807926654815674,2.2332301139831543,0.05800800770521164,0.08508724719285965,0.17225614190101624,0.08407380431890488,0.05729255825281143,14.0
2026-04-27T18:34:39.287022,270426_171158.000000,1,58.14461135864258,8.009100914001465,-0.10000000149011612,0.0,0.8100000023841858,12,248.74000549316406,1,270426_173135.015625,-4.150583267211914,2.8507070541381836,0.1508437991142273,1.3097516298294067,2.2983784675598145,-0.10058135539293289,0.022071056067943573,-0.1102275475859642,0.07272803038358688,0.04948558285832405,16.0
2026-04-27T18:34:42.473562,270426_171206.000000,1,58.14461135864258,8.009100914001465,-0.10000000149011612,0.0,0.8100000023841858,12,248.74000549316406,1,270426_173135.015625,-4.1953606605529785,2.793300151824951,0.14313527941703796,7.2946038246154785,2.2717137336730957,0.027147263288497925,0.01448079850524664,0.13978926837444305,0.07536452263593674,0.04779817536473274,16.0
2026-04-27T18:34:42.473925,270426_171206.000000,1,58.14461135864258,8.009100914001465,-0.10000000149011612,0.0,0.8100000023841858,12,248.74000549316406,1,270426_173135.015625,-4.1953606605529785,2.793300151824951,0.14313527941703796,7.2946038246154785,2.2717137336730957,0.027147263288497925,0.01448079850524664,0.13978926837444305,0.07536452263593674,0.04779817536473274,16.0
2026-04-27T18:34:42.474327,270426_171206.000000,1,58.14461135864258,8.009100914001465,-0.10000000149011612,0.0,0.8100000023841858,12,248.74000549316406,1,270426_173135.015625,-4.1953606605529785,2.793300151824951,0.14313527941703796,7.2946038246154785,2.2717137336730957,0.027147263288497925,0.01448079850524664,0.13978926837444305,0.07536452263593674,0.04779817536473274,16.0
2026-04-27T18:34:42.485269,270426_171206.000000,1,58.14461135864258,8.009100914001465,-0.10000000149011612,0.0,0.8100000023841858,12,248.74000549316406,1,270426_173135.015625,-4.1953606605529785,2.793300151824951,0.14313527941703796,7.2946038246154785,2.2717137336730957,0.027147263288497925,0.01448079850524664,0.13978926837444305,0.07536452263593674,0.04779817536473274,16.0
2026-04-27T18:34:45.431398,270426_171224.000000,1,58.14461135864258,8.009100914001465,-0.10000000149011612,0.0,0.8100000023841858,12,248.74000549316406,1,270426_173135.015625,-4.183949947357178,1.4879064559936523,0.15630170702934265,2.490133047103882,2.2482106685638428,0.0957132950425148,0.049183450639247894,-0.11335861682891846,0.07799326628446579,0.045870304107666016,18.0
2026-04-27T18:34:48.484590,270426_171224.984375,1,58.14461135864258,8.009100914001465,-0.10000000149011612,0.0,0.8100000023841858,12,248.74000549316406,1,270426_173135.015625,-4.354668617248535,1.7586612701416016,0.24923065304756165,5.133967876434326,2.136115312576294,0.046122316271066666,0.17234501242637634,0.17402827739715576,0.06673932075500488,0.04174600541591644,16.0
2026-04-27T18:34:51.575008,270426_171232.984375,1,58.14461135864258,8.009100914001465,-0.10000000149011612,0.0,0.8100000023841858,12,248.74000549316406,1,270426_173135.015625,-4.0701518058776855,2.1975345611572266,0.22112317383289337,2.4514479637145996,2.028129816055298,-0.011442921124398708,0.04579118639230728,-0.21602703630924225,0.0656457394361496,0.03930361568927765,16.0
2026-04-27T18:34:54.626817,270426_171240.984375,1,58.14461135864258,8.009100914001465,-0.10000000149011612,0.0,0.8100000023841858,12,248.74000549316406,1,270426_173136.000000,-4.445794582366943,2.7722880840301514,0.21186500787734985,2.2568423748016357,1.8818457126617432,-0.022852277383208275,0.019122397527098656,-0.20975911617279053,0.06544046103954315,0.03981116786599159,14.0
2026-04-27T18:34:57.616653,270426_171242.000000,1,58.14461135864258,8.009100914001465,-0.10000000149011612,0.0,0.8100000023841858,12,248.74000549316406,1,270426_173136.000000,-4.722690105438232,2.73299241065979,0.12664476037025452,3.9158241748809814,1.9158501625061035,-0.019807513803243637,-0.08485104143619537,0.09190679341554642,0.0667635127902031,0.040579427033662796,14.0
2026-04-27T18:35:00.586512,270426_171250.000000,1,58.14461135864258,8.009100914001465,-0.10000000149011612,0.0,0.8100000023841858,12,248.74000549316406,1,270426_173151.015625,-4.536630630493164,2.9781432151794434,0.0924597978591919,4.672478199005127,1.8777453899383545,0.004566088318824768,-0.05775313451886177,0.0720592811703682,0.05553959310054779,0.03570917993783951,14.0
2026-04-27T18:35:03.667908,270426_171251.015625,1,58.14461135864258,8.009100914001465,-0.10000000149011612,0.0,0.8100000023841858,12,248.74000549316406,1,270426_173151.015625,-3.6481642723083496,2.325941562652588,0.5575480461120605,8.314002990722656,2.1147093772888184,0.1184513047337532,0.311710387468338,0.4468397796154022,0.08161766082048416,0.04438706859946251,14.0
2026-04-27T18:35:03.668215,270426_171251.015625,1,58.14461135864258,8.009100914001465,-0.10000000149011612,0.0,0.8100000023841858,12,248.74000549316406,1,270426_173151.015625,-3.6481642723083496,2.325941562652588,0.5575480461120605,8.314002990722656,2.1147093772888184,0.1184513047337532,0.311710387468338,0.4468397796154022,0.08161766082048416,0.04438706859946251,14.0
2026-04-27T18:35:06.845102,270426_171307.015625,1,58.14461135864258,8.009100914001465,-0.10000000149011612,0.0,0.8100000023841858,12,248.74000549316406,1,270426_173151.015625,-4.039575576782227,1.7906299829483032,0.17578259110450745,2.2790908813476562,2.035520315170288,0.02751845121383667,-0.11287106573581696,0.1319180577993393,0.07947893440723419,0.0426843985915184,16.0
2026-04-27T18:35:09.908620,270426_171324.984375,1,58.14461135864258,8.009100914001465,-0.10000000149011612,0.0,0.8100000023841858,12,248.74000549316406,1,270426_173151.015625,-3.9772095680236816,2.21541428565979,0.1814395785331726,0.5703308582305908,2.041983127593994,-0.07962273806333542,-0.006847593002021313,0.16289153695106506,0.07857469469308853,0.040470026433467865,14.0
2026-04-27T18:35:12.770551,270426_171332.984375,1,58.14461135864258,8.009100914001465,-0.10000000149011612,0.0,0.8100000023841858,12,248.74000549316406,1,270426_173151.015625,-4.0460524559021,1.8039017915725708,0.30061134696006775,3.4205968379974365,2.0700931549072266,0.13070473074913025,0.014422581531107426,0.27032470703125,0.08798843622207642,0.043847475200891495,16.0
2026-04-27T18:35:15.858017,270426_171334.000000,1,58.14461135864258,8.009100914001465,-0.10000000149011612,0.0,0.8100000023841858,12,248.74000549316406,1,270426_173207.015625,-4.354013442993164,2.033332109451294,0.12848243117332458,0.46091169118881226,1.9108552932739258,-0.039717257022857666,-0.00786434207111597,-0.12193614989519119,0.08389594405889511,0.04090653359889984,16.0
2026-04-27T18:35:15.858392,270426_171334.000000,1,58.14461135864258,8.009100914001465,-0.10000000149011612,0.0,0.8100000023841858,12,248.74000549316406,1,270426_173207.015625,-4.354013442993164,2.033332109451294,0.12848243117332458,0.46091169118881226,1.9108552932739258,-0.039717257022857666,-0.00786434207111597,-0.12193614989519119,0.08389594405889511,0.04090653359889984,16.0
2026-04-27T18:35:15.858901,270426_171334.000000,1,58.14461135864258,8.009100914001465,-0.10000000149011612,0.0,0.8100000023841858,12,248.74000549316406,1,270426_173207.015625,-4.354013442993164,2.033332109451294,0.12848243117332458,0.46091169118881226,1.9108552932739258,-0.039717257022857666,-0.00786434207111597,-0.12193614989519119,0.08389594405889511,0.04090653359889984,16.0
2026-04-27T18:35:15.892753,270426_171334.000000,1,58.14461135864258,8.009100914001465,-0.10000000149011612,0.0,0.8100000023841858,12,248.74000549316406,1,270426_173207.015625,-4.354013442993164,2.033332109451294,0.12848243117332458,0.46091169118881226,1.9108552932739258,-0.039717257022857666,-0.00786434207111597,-0.12193614989519119,0.08389594405889511,0.04090653359889984,16.0
2026-04-27T18:35:19.056679,270426_171342.000000,1,58.14461135864258,8.009100914001465,-0.10000000149011612,0.0,0.8100000023841858,12,248.74000549316406,1,270426_173207.015625,-4.419336318969727,3.1347646713256836,0.16018222272396088,3.5287835597991943,1.8014276027679443,-0.06776594370603561,-0.015683215111494064,-0.1442919373512268,0.06730064749717712,0.03719888627529144,16.0
2026-04-27T18:35:22.095509,270426_171350.000000,1,58.14461135864258,8.009100914001465,-0.10000000149011612,0.0,0.8100000023841858,12,248.74000549316406,1,270426_173208.000000,-4.207361221313477,3.5041615962982178,0.11527184396982193,4.6220855712890625,1.8122435808181763,0.09128392487764359,-0.06616303324699402,-0.024026993662118912,0.07197532057762146,0.04007980227470398,16.0
2026-04-27T18:35:22.098319,270426_171350.000000,1,58.14461135864258,8.009100914001465,-0.10000000149011612,0.0,0.8100000023841858,12,248.74000549316406,1,270426_173208.000000,-4.207361221313477,3.5041615962982178,0.11527184396982193,4.6220855712890625,1.8122435808181763,0.09128392487764359,-0.06616303324699402,-0.024026993662118912,0.07197532057762146,0.04007980227470398,16.0
2026-04-27T18:35:25.174811,270426_171351.015625,1,58.14461135864258,8.009100914001465,-0.10000000149011612,0.0,0.8100000023841858,12,248.74000549316406,1,270426_173208.000000,-3.646714687347412,2.8887929916381836,0.32841792702674866,3.675532817840576,2.017367362976074,-0.032418493181467056,0.18476025760173798,0.2695756256580353,0.08152034878730774,0.044331565499305725,16.0
2026-04-27T18:35:28.522882,270426_171359.015625,1,58.14461135864258,8.009100914001465,-0.10000000149011612,0.0,0.8100000023841858,12,248.74000549316406,1,270426_173208.000000,-3.759909152984619,2.693474769592285,0.11790589988231659,4.493663787841797,2.051706314086914,0.02312975376844406,-0.07164915651082993,0.09073705971240997,0.07863416522741318,0.046122957020998,14.0
2026-04-27T18:35:32.040610,270426_171407.015625,1,58.14461135864258,8.009100914001465,-0.10000000149011612,0.0,0.8100000023841858,12,248.74000549316406,1,270426_173223.015625,-4.250941276550293,2.819237470626831,0.24185265600681305,1.1000841856002808,2.1246705055236816,0.026683926582336426,-0.08298435062170029,-0.2255975753068924,0.0730961337685585,0.047382451593875885,14.0
2026-04-27T18:35:35.121042,270426_171408.000000,1,58.14461135864258,8.009100914001465,-0.10000000149011612,0.0,0.8100000023841858,12,248.74000549316406,1,270426_173223.015625,-4.337849140167236,2.8602123260498047,0.30225542187690735,3.808770179748535,2.1002423763275146,0.03424758464097977,-0.046645116060972214,-0.2966642677783966,0.07898956537246704,0.04514572024345398,14.0
2026-04-27T18:35:38.074875,270426_171416.984375,1,58.14461135864258,8.009100914001465,-0.10000000149011612,0.0,0.8100000023841858,12,248.74000549316406,1,270426_173223.015625,-3.639413595199585,2.3094310760498047,0.21958790719509125,4.7764458656311035,2.233621597290039,-0.017061036080121994,0.20533722639083862,0.07592359930276871,0.07840581238269806,0.047021981328725815,14.0
2026-04-27T18:35:41.271485,270426_171424.984375,1,58.14461135864258,8.009100914001465,-0.10000000149011612,0.0,0.8100000023841858,12,248.74000549316406,1,270426_173223.015625,-3.9480574131011963,2.8858115673065186,0.09347125142812729,2.522270917892456,1.8785992860794067,-0.08414293825626373,0.039208896458148956,-0.010931719094514847,0.07046166062355042,0.040280625224113464,16.0
2026-04-27T18:35:44.414887,270426_171432.984375,1,58.14461135864258,8.009100914001465,-0.10000000149011612,0.0,0.8100000023841858,12,248.74000549316406,1,270426_173224.000000,-3.692128896713257,2.8853702545166016,0.1572318822145462,0.41759103536605835,2.018307685852051,-0.03822667896747589,0.05694583058357239,-0.14148414134979248,0.07046941667795181,0.03996945917606354,14.0
2026-04-27T18:35:47.396357,270426_171434.000000,1,58.14461135864258,8.009100914001465,-0.10000000149011612,0.0,0.8100000023841858,12,248.74000549316406,1,270426_173224.000000,-4.053582191467285,2.724334716796875,0.08631940186023712,6.996852874755859,1.9856288433074951,-0.02730952762067318,-0.05902760475873947,0.05675360560417175,0.07818660885095596,0.043476853519678116,16.0
2026-04-27T18:35:47.399333,270426_171434.000000,1,58.14461135864258,8.009100914001465,-0.10000000149011612,0.0,0.8100000023841858,12,248.74000549316406,1,270426_173224.000000,-4.053582191467285,2.724334716796875,0.08631940186023712,6.996852874755859,1.9856288433074951,-0.02730952762067318,-0.05902760475873947,0.05675360560417175,0.07818660885095596,0.043476853519678116,16.0
2026-04-27T18:35:47.430779,270426_171434.000000,1,58.14461135864258,8.009100914001465,-0.10000000149011612,0.0,0.8100000023841858,12,248.74000549316406,1,270426_173224.000000,-4.053582191467285,2.724334716796875,0.08631940186023712,6.996852874755859,1.9856288433074951,-0.02730952762067318,-0.05902760475873947,0.05675360560417175,0.07818660885095596,0.043476853519678116,16.0
2026-04-27T18:35:50.453740,270426_171442.000000,1,58.14461135864258,8.009100914001465,-0.10000000149011612,0.0,0.8100000023841858,12,248.74000549316406,1,270426_173224.000000,-3.8484528064727783,2.5621249675750732,0.17938914895057678,0.835979700088501,2.083766222000122,-0.040441274642944336,0.04296008497476578,-0.16940896213054657,0.06617148965597153,0.03916991502046585,14.0
2026-04-27T18:35:53.460092,270426_171443.015625,1,58.14461135864258,8.009100914001465,-0.10000000149011612,0.0,0.8100000023841858,12,248.74000549316406,1,270426_173239.015625,-4.0273237228393555,2.114593982696533,0.12778036296367645,6.915120601654053,2.058725357055664,0.07850407063961029,0.0914374515414238,-0.04247501492500305,0.07187553495168686,0.045147571712732315,13.0
2026-04-27T18:35:56.517018,270426_171451.015625,1,58.14461135864258,8.009100914001465,-0.10000000149011612,0.0,0.8100000023841858,12,248.74000549316406,1,270426_173239.015625,-3.5003862380981445,1.8652129173278809,0.19362471997737885,2.1437559127807617,2.1059229373931885,0.07638143748044968,0.05785571038722992,0.16825315356254578,0.0708610787987709,0.04752852022647858,15.0
2026-04-27T18:35:59.559387,270426_171516.000000,1,58.14461135864258,8.009100914001465,-0.10000000149011612,0.0,0.8600000143051147,11,248.74000549316406,1,270426_173254.000000,-3.7641546726226807,1.979791522026062,0.11879570782184601,4.7104082107543945,2.0219669342041016,0.02727987989783287,0.10547520965337753,-0.04736251384019852,0.067962147295475,0.047938380390405655,15.0
2026-04-27T18:36:02.641507,270426_171524.984375,1,58.14461135864258,8.009100914001465,-0.10000000149011612,0.0,0.8600000143051147,11,248.74000549316406,1,270426_173254.000000,-3.6804776191711426,2.037102460861206,0.2382698357105255,2.1786956787109375,2.064439535140991,-0.05088697373867035,0.09721202403306961,0.21150143444538116,0.0643806904554367,0.045193079859018326,15.0
2026-04-27T18:36:05.785771,270426_171526.000000,1,58.14461135864258,8.009100914001465,-0.10000000149011612,0.0,0.8600000143051147,11,248.74000549316406,1,270426_173254.000000,-3.2743377685546875,1.8612443208694458,0.35934948921203613,3.310614585876465,1.9858461618423462,0.024452898651361465,-0.05655167996883392,-0.35402825474739075,0.06671532988548279,0.04723075032234192,15.0
2026-04-27T18:36:05.786258,270426_171526.000000,1,58.14461135864258,8.009100914001465,-0.10000000149011612,0.0,0.8600000143051147,11,248.74000549316406,1,270426_173254.000000,-3.2743377685546875,1.8612443208694458,0.35934948921203613,3.310614585876465,1.9858461618423462,0.024452898651361465,-0.05655167996883392,-0.35402825474739075,0.06671532988548279,0.04723075032234192,15.0
2026-04-27T18:36:05.797521,270426_171526.000000,1,58.14461135864258,8.009100914001465,-0.10000000149011612,0.0,0.8600000143051147,11,248.74000549316406,1,270426_173254.000000,-3.2743377685546875,1.8612443208694458,0.35934948921203613,3.310614585876465,1.9858461618423462,0.024452898651361465,-0.05655167996883392,-0.35402825474739075,0.06671532988548279,0.04723075032234192,15.0
2026-04-27T18:36:05.815433,270426_171526.000000,1,58.14461135864258,8.009100914001465,-0.10000000149011612,0.0,0.8600000143051147,11,248.74000549316406,1,270426_173254.000000,-3.2743377685546875,1.8612443208694458,0.35934948921203613,3.310614585876465,1.9858461618423462,0.024452898651361465,-0.05655167996883392,-0.35402825474739075,0.06671532988548279,0.04723075032234192,15.0
2026-04-27T18:36:08.803028,270426_171534.000000,1,58.14461135864258,8.009100914001465,-0.10000000149011612,0.0,0.8600000143051147,11,248.74000549316406,1,270426_173254.000000,-3.1447253227233887,1.6986323595046997,0.17147360742092133,2.0760161876678467,1.8402236700057983,0.05700269713997841,0.08058249205350876,-0.14021539688110352,0.07032976299524307,0.04409027472138405,16.0
2026-04-27T18:36:11.967204,270426_171542.000000,1,58.14461135864258,8.009100914001465,-0.10000000149011612,0.0,0.8100000023841858,12,248.74000549316406,1,270426_173254.000000,-3.213362455368042,1.625289797782898,0.16584500670433044,3.2441866397857666,1.8107459545135498,-0.02126665785908699,-0.08470511436462402,-0.14098700881004333,0.0716724768280983,0.0394987091422081,14.0
2026-04-27T18:36:18.019774,270426_171551.015625,1,58.14461135864258,8.009100914001465,-0.10000000149011612,0.0,0.8100000023841858,12,248.74000549316406,1,270426_173254.000000,-3.03096342086792,2.733720541000366,0.2922728359699249,1.7130517959594727,1.7340790033340454,0.06071339547634125,-0.03202858939766884,-0.2840976119041443,0.08086179941892624,0.04672101512551308,16.0
2026-04-27T18:36:21.081832,270426_171559.015625,1,58.14461135864258,8.009100914001465,-0.10000000149011612,0.0,0.8600000143051147,11,248.74000549316406,1,270426_173310.000000,-3.102187156677246,2.4077577590942383,0.2345905750989914,2.5937960147857666,1.8425310850143433,-0.02380727045238018,0.008750468492507935,0.2332153171300888,0.07332229614257812,0.04371367022395134,16.0
2026-04-27T18:36:24.180022,270426_171600.000000,1,58.14461135864258,8.009100914001465,-0.10000000149011612,0.0,0.8600000143051147,11,248.74000549316406,1,270426_173310.000000,-3.1640233993530273,2.1228864192962646,0.20075419545173645,4.488636493682861,1.7914589643478394,0.03562736138701439,0.1555606722831726,0.12179413437843323,0.07312329858541489,0.04687567800283432,16.0
2026-04-27T18:36:27.261665,270426_171608.000000,1,58.14461135864258,8.009100914001465,-0.10000000149011612,0.0,0.8100000023841858,12,248.74000549316406,1,270426_173310.000000,-3.7320048809051514,1.719846487045288,0.45358362793922424,9.327251434326172,1.9977400302886963,0.2740550637245178,0.19638581573963165,0.30342137813568115,0.0799378901720047,0.050145331770181656,16.0
2026-04-27T18:36:30.503404,270426_171608.984375,1,58.14461135864258,8.009100914001465,-0.10000000149011612,0.0,0.8100000023841858,12,248.74000549316406,1,270426_173310.000000,-2.760512351989746,2.007040023803711,0.4020267724990845,4.623607158660889,2.056126594543457,-0.0903388187289238,0.23398937284946442,0.3141869008541107,0.08446952700614929,0.05146753415465355,16.0
2026-04-27T18:36:33.623727,270426_171616.984375,1,58.14466094970703,8.009078025817871,-0.699999988079071,0.0,0.8100000023841858,12,248.74000549316406,1,270426_173310.000000,-3.1770102977752686,2.081709861755371,0.22226503491401672,1.6281445026397705,2.0289525985717773,0.008244777098298073,-0.08981412649154663,-0.20314329862594604,0.08247119188308716,0.04870448634028435,16.0
2026-04-27T18:36:36.647930,270426_171624.984375,1,58.14466094970703,8.009078025817871,-0.699999988079071,0.0,0.8100000023841858,12,248.74000549316406,1,270426_173324.984375,-2.7453672885894775,1.8377493619918823,0.33552801609039307,1.0627925395965576,1.956456184387207,0.01390201598405838,-0.005648557096719742,-0.33519232273101807,0.08798155188560486,0.049128368496894836,16.0
2026-04-27T18:36:39.597719,270426_171626.000000,1,58.14466094970703,8.009078025817871,-0.699999988079071,0.0,0.8100000023841858,12,248.74000549316406,1,270426_173324.984375,-2.622051477432251,1.341193675994873,0.2047898918390274,1.9110779762268066,1.9402203559875488,0.041673872619867325,0.11944102495908737,-0.16104668378829956,0.08402808755636215,0.051168788224458694,16.0
2026-04-27T18:36:42.714608,270426_171634.000000,1,58.14466094970703,8.009078025817871,-0.699999988079071,0.0,0.8100000023841858,12,248.74000549316406,1,270426_173324.984375,-2.3534984588623047,1.718616008758545,0.27170196175575256,3.749539375305176,1.7955527305603027,-0.040980711579322815,-0.019251158460974693,-0.26790282130241394,0.07543572038412094,0.0504157580435276,16.0
2026-04-27T18:36:45.816527,270426_171635.015625,1,58.14466094970703,8.009078025817871,-0.699999988079071,0.0,0.8100000023841858,12,248.74000549316406,1,270426_173324.984375,-2.385962724685669,1.8626693487167358,0.2646016776561737,2.6970462799072266,1.7083226442337036,0.03240226209163666,-0.09572163969278336,-0.24454346299171448,0.06523177772760391,0.04770901799201965,12.0
2026-04-27T18:36:48.779681,270426_171651.015625,1,58.14466094970703,8.009045600891113,-1.5,0.0,0.8100000023841858,12,248.74000549316406,1,270426_173340.000000,-2.4847304821014404,1.6788139343261719,0.1556115746498108,0.46281275153160095,1.8772181272506714,0.056852780282497406,-0.012663744390010834,0.14429953694343567,0.06566962599754333,0.04895082116127014,12.0
2026-04-27T18:36:51.781427,270426_171652.000000,1,58.14466094970703,8.009045600891113,-1.5,0.0,0.8100000023841858,12,248.74000549316406,1,270426_173340.000000,-2.6790337562561035,1.841396689414978,0.17814825475215912,0.8247030377388,1.7565325498580933,0.027646608650684357,-0.0012131864205002785,0.17598576843738556,0.059229832142591476,0.04642098769545555,12.0
2026-04-27T18:36:54.915369,270426_171708.000000,1,58.14466094970703,8.009045600891113,-1.5,0.0,0.8100000023841858,12,248.74000549316406,1,270426_173340.000000,-2.349928379058838,2.103884220123291,0.0859828069806099,3.5973007678985596,1.7619577646255493,0.003971159923821688,0.08531343191862106,0.00994438398629427,0.06091051176190376,0.043401800096035004,12.0
2026-04-27T18:36:57.946446,270426_171708.984375,1,58.14466094970703,8.009045600891113,-1.5,0.0,0.8100000023841858,12,248.74000549316406,1,270426_173340.000000,-2.2747962474823,2.1602091789245605,0.22077307105064392,2.157924175262451,1.7599446773529053,-0.00572161003947258,0.058243636041879654,-0.21287482976913452,0.06315145641565323,0.041094064712524414,12.0
2026-04-27T18:37:01.120199,270426_171716.984375,1,58.14466094970703,8.009045600891113,-1.5,0.0,0.8100000023841858,12,248.74000549316406,1,270426_173340.000000,-2.2376091480255127,2.255467176437378,0.14038893580436707,3.0487451553344727,2.319880723953247,-0.04143964871764183,-0.10673662275075912,-0.08123484253883362,0.07905647158622742,0.04480462893843651,14.0
2026-04-27T18:37:01.120641,270426_171716.984375,1,58.14466094970703,8.009045600891113,-1.5,0.0,0.8100000023841858,12,248.74000549316406,1,270426_173340.000000,-2.2376091480255127,2.255467176437378,0.14038893580436707,3.0487451553344727,2.319880723953247,-0.04143964871764183,-0.10673662275075912,-0.08123484253883362,0.07905647158622742,0.04480462893843651,14.0
2026-04-27T18:37:01.122583,270426_171716.984375,1,58.14466094970703,8.009045600891113,-1.5,0.0,0.8100000023841858,12,248.74000549316406,1,270426_173340.000000,-2.2376091480255127,2.255467176437378,0.14038893580436707,3.0487451553344727,2.319880723953247,-0.04143964871764183,-0.10673662275075912,-0.08123484253883362,0.07905647158622742,0.04480462893843651,14.0
2026-04-27T18:37:01.140906,270426_171716.984375,1,58.14466094970703,8.009045600891113,-1.5,0.0,0.8100000023841858,12,248.74000549316406,1,270426_173340.000000,-2.2376091480255127,2.255467176437378,0.14038893580436707,3.0487451553344727,2.319880723953247,-0.04143964871764183,-0.10673662275075912,-0.08123484253883362,0.07905647158622742,0.04480462893843651,14.0
2026-04-27T18:37:03.999007,270426_171718.000000,1,58.14466094970703,8.009045600891113,-1.5,0.0,0.8100000023841858,12,248.74000549316406,1,270426_173355.015625,-1.9217523336410522,3.154951572418213,0.34866055846214294,2.6574859619140625,2.259101390838623,-0.007533871568739414,-0.035716306418180466,-0.346744567155838,0.08875447511672974,0.0471670925617218,14.0
2026-04-27T18:37:07.062983,270426_171726.000000,1,58.14466094970703,8.009045600891113,-1.5,0.0,0.8100000023841858,12,248.74000549316406,1,270426_173355.015625,-1.7982139587402344,2.8670105934143066,0.16448377072811127,1.9524906873703003,2.453606367111206,-0.04782421886920929,0.0931970551609993,-0.126815065741539,0.09071238338947296,0.05128370597958565,14.0
2026-04-27T18:37:07.069611,270426_171726.000000,1,58.14466094970703,8.009045600891113,-1.5,0.0,0.8100000023841858,12,248.74000549316406,1,270426_173355.015625,-1.7982139587402344,2.8670105934143066,0.16448377072811127,1.9524906873703003,2.453606367111206,-0.04782421886920929,0.0931970551609993,-0.126815065741539,0.09071238338947296,0.05128370597958565,14.0
2026-04-27T18:37:07.074359,270426_171726.000000,1,58.14466094970703,8.009045600891113,-1.5,0.0,0.8100000023841858,12,248.74000549316406,1,270426_173355.015625,-1.7982139587402344,2.8670105934143066,0.16448377072811127,1.9524906873703003,2.453606367111206,-0.04782421886920929,0.0931970551609993,-0.126815065741539,0.09071238338947296,0.05128370597958565,14.0
2026-04-27T18:37:07.082885,270426_171726.000000,1,58.14466094970703,8.009045600891113,-1.5,0.0,0.8100000023841858,12,248.74000549316406,1,270426_173355.015625,-1.7982139587402344,2.8670105934143066,0.16448377072811127,1.9524906873703003,2.453606367111206,-0.04782421886920929,0.0931970551609993,-0.126815065741539,0.09071238338947296,0.05128370597958565,14.0
2026-04-27T18:37:10.159025,270426_171734.000000,1,58.14466094970703,8.009045600891113,-1.5,0.0,0.8100000023841858,12,248.74000549316406,1,270426_173356.000000,-1.9563828706741333,2.136979103088379,0.027450870722532272,4.0495734214782715,2.5199944972991943,0.0065966034308075905,-0.022772597149014473,-0.013836326077580452,0.09445063024759293,0.05464499071240425,16.0
2026-04-27T18:37:13.202975,270426_171735.015625,1,58.14466094970703,8.009045600891113,-1.5,0.0,0.8100000023841858,12,248.74000549316406,1,270426_173356.000000,-1.9659026861190796,2.6926989555358887,0.22775745391845703,2.402815818786621,2.4682416915893555,-0.09846440702676773,0.009848694317042828,0.20513707399368286,0.09712783992290497,0.05498189479112625,16.0
2026-04-27T18:37:19.249929,270426_171751.015625,1,58.14466094970703,8.009045600891113,-1.5,0.0,0.8299999833106995,12,248.74000549316406,1,270426_173356.000000,-2.261136531829834,2.404202699661255,0.08564887195825577,4.663503646850586,2.1417174339294434,0.06247931718826294,0.04066602140665054,-0.04217034578323364,0.0803392082452774,0.04294724389910698,16.0
2026-04-27T18:37:22.317305,270426_171752.000000,1,58.14466094970703,8.009045600891113,-1.5,0.0,0.8299999833106995,12,248.74000549316406,1,270426_173356.000000,-2.3091185092926025,2.3110170364379883,0.1185157522559166,0.7914307713508606,2.0087883472442627,-0.03965272754430771,0.043728917837142944,-0.10276880115270615,0.0731016993522644,0.036266084760427475,18.0
2026-04-27T18:37:25.341628,270426_171800.000000,1,58.14466094970703,8.009045600891113,-1.5,0.0,0.8299999833106995,12,248.74000549316406,1,270426_173411.015625,-2.256171703338623,1.9112344980239868,0.1652611345052719,5.080997467041016,1.9511921405792236,-0.013528863899409771,0.1481495499610901,0.07197166234254837,0.0651126578450203,0.035327114164829254,16.0
2026-04-27T18:37:28.320770,270426_171800.984375,1,58.14466094970703,8.009045600891113,-1.5,0.0,0.8299999833106995,12,248.74000549316406,1,270426_173411.015625,-2.2753052711486816,1.408968210220337,0.18984299898147583,2.226743459701538,1.9512056112289429,0.013591894879937172,-0.1165275126695633,0.1492546796798706,0.07211416214704514,0.03666960448026657,16.0
2026-04-27T18:37:31.429347,270426_171808.984375,1,58.14466094970703,8.009045600891113,-1.5,0.0,0.8299999833106995,12,248.74000549316406,1,270426_173411.015625,-2.5255744457244873,1.6898406744003296,0.18986085057258606,1.8810113668441772,2.0901834964752197,-0.07838167250156403,-0.046528223901987076,-0.16654902696609497,0.07506982237100601,0.042550139129161835,16.0
2026-04-27T18:37:34.511709,270426_171816.984375,1,58.14466094970703,8.009045600891113,-1.5,0.0,0.8999999761581421,11,248.74000549316406,1,270426_173411.015625,-3.3071162700653076,1.5328510999679565,0.10935421288013458,3.592301368713379,2.118417501449585,-0.07312548905611038,-0.03861023113131523,-0.0715559646487236,0.08398773521184921,0.04367618262767792,15.0
2026-04-27T18:37:37.457729,270426_171818.000000,1,58.14466094970703,8.009045600891113,-1.5,0.0,0.8999999761581421,11,248.74000549316406,1,270426_173411.015625,-4.90683650970459,1.9191820621490479,0.21983318030834198,2.807621717453003,1.9421885013580322,-0.0017884420230984688,0.08333951979875565,0.20341569185256958,0.07993119955062866,0.05115325003862381,14.0
2026-04-27T18:37:40.646275,270426_171826.000000,1,58.14466094970703,8.009045600891113,-1.5,0.0,0.8299999833106995,12,248.74000549316406,1,270426_173411.015625,-4.918944835662842,1.4064240455627441,0.189957395195961,4.491557598114014,1.742796540260315,-0.04679810628294945,0.1448187679052353,0.11367176473140717,0.07717680931091309,0.04697743430733681,14.0
2026-04-27T18:37:40.646781,270426_171826.000000,1,58.14466094970703,8.009045600891113,-1.5,0.0,0.8299999833106995,12,248.74000549316406,1,270426_173411.015625,-4.918944835662842,1.4064240455627441,0.189957395195961,4.491557598114014,1.742796540260315,-0.04679810628294945,0.1448187679052353,0.11367176473140717,0.07717680931091309,0.04697743430733681,14.0
2026-04-27T18:37:43.614886,270426_171843.015625,1,58.14466094970703,8.009045600891113,-1.5,0.0,0.8100000023841858,12,248.74000549316406,1,270426_173411.015625,-5.286971569061279,1.6397373676300049,0.12558676302433014,1.882437825202942,1.8062293529510498,-0.02301708608865738,0.016959141939878464,-0.12228915095329285,0.07692775130271912,0.047590602189302444,16.0
2026-04-27T18:37:46.594139,270426_171844.000000,1,58.14466094970703,8.009045600891113,-1.5,0.0,0.8100000023841858,12,248.74000549316406,1,270426_173411.015625,-5.6073102951049805,0.9149237275123596,0.08044379204511642,1.7470901012420654,1.8599766492843628,0.018329933285713196,-0.06329621374607086,-0.04613898694515228,0.07428757846355438,0.045074593275785446,14.0
2026-04-27T18:37:49.694625,270426_171852.000000,1,58.14466094970703,8.009045600891113,-1.5,0.0,0.8100000023841858,12,248.74000549316406,1,270426_173411.015625,-5.5527801513671875,0.39974668622016907,0.18971647322177887,1.8241462707519531,1.899586796760559,0.07743175327777863,-0.023855293169617653,0.17154473066329956,0.07251036167144775,0.04054779186844826,16.0
2026-04-27T18:37:52.839184,270426_171900.000000,1,58.14466094970703,8.009045600891113,-1.5,0.0,0.8100000023841858,12,248.74000549316406,1,270426_173443.015625,-5.618898391723633,0.27903464436531067,0.2008509784936905,2.1440272331237793,2.052119255065918,-0.02348240092396736,-0.02816930040717125,-0.19747449457645416,0.06803632527589798,0.03669343516230583,16.0
2026-04-27T18:37:55.805540,270426_171900.984375,1,58.14466094970703,8.009045600891113,-1.5,0.0,0.8100000023841858,12,248.74000549316406,1,270426_173443.015625,-5.476226329803467,0.41652655601501465,0.1605706363916397,0.8882104158401489,2.0391767024993896,0.0262296162545681,0.05609440058469772,0.1481497883796692,0.05864277109503746,0.031118368729948997,14.0
2026-04-27T18:38:01.858988,270426_171916.984375,1,58.14466094970703,8.009045600891113,-1.5,0.0,0.8100000023841858,12,248.74000549316406,1,270426_173443.015625,-5.55887508392334,-0.5005061030387878,0.09929090738296509,3.5346994400024414,1.729142189025879,0.054606907069683075,0.04606342688202858,-0.06895601004362106,0.062322407960891724,0.026009943336248398,12.0
2026-04-27T18:38:04.918829,270426_171918.000000,1,58.1446418762207,8.009069442749023,-4.800000190734863,0.9300000071525574,0.8100000023841858,12,248.74000549316406,1,270426_173459.015625,-5.294076442718506,-0.14376571774482727,0.1871316134929657,2.0722861289978027,1.6629002094268799,-0.04956716671586037,0.08151322603225708,-0.16098734736442566,0.06170189008116722,0.025457648560404778,14.0
2026-04-27T18:38:08.026313,270426_171926.000000,1,58.1446418762207,8.009069442749023,-5.099999904632568,0.0,0.8100000023841858,12,248.74000549316406,1,270426_173459.015625,-4.996248722076416,-0.19272834062576294,0.19793525338172913,0.4930543899536133,1.4476778507232666,0.11447565257549286,0.0597163625061512,-0.15002545714378357,0.06361402571201324,0.024415981024503708,12.0
2026-04-27T18:38:11.061860,270426_171927.015625,1,58.1446418762207,8.009069442749023,-5.099999904632568,0.0,0.8100000023841858,12,248.74000549316406,1,270426_173459.015625,-4.575396537780762,-0.12451048940420151,0.20653508603572845,1.692354679107666,1.6194343566894531,0.027725573629140854,-0.03919326886534691,-0.20087787508964539,0.0687267854809761,0.02872120589017868,14.0
2026-04-27T18:38:11.062214,270426_171927.015625,1,58.1446418762207,8.009069442749023,-5.099999904632568,0.0,0.8100000023841858,12,248.74000549316406,1,270426_173459.015625,-4.575396537780762,-0.12451048940420151,0.20653508603572845,1.692354679107666,1.6194343566894531,0.027725573629140854,-0.03919326886534691,-0.20087787508964539,0.0687267854809761,0.02872120589017868,14.0
2026-04-27T18:38:11.062513,270426_171927.015625,1,58.1446418762207,8.009069442749023,-5.099999904632568,0.0,0.8100000023841858,12,248.74000549316406,1,270426_173459.015625,-4.575396537780762,-0.12451048940420151,0.20653508603572845,1.692354679107666,1.6194343566894531,0.027725573629140854,-0.03919326886534691,-0.20087787508964539,0.0687267854809761,0.02872120589017868,14.0
2026-04-27T18:38:11.080015,270426_171927.015625,1,58.1446418762207,8.009069442749023,-5.099999904632568,0.0,0.8100000023841858,12,248.74000549316406,1,270426_173459.015625,-4.575396537780762,-0.12451048940420151,0.20653508603572845,1.692354679107666,1.6194343566894531,0.027725573629140854,-0.03919326886534691,-0.20087787508964539,0.0687267854809761,0.02872120589017868,14.0
2026-04-27T18:38:14.038805,270426_171935.015625,1,58.1446418762207,8.009069442749023,-5.099999904632568,0.0,0.8100000023841858,12,248.74000549316406,1,270426_173459.015625,-3.8285329341888428,0.18594315648078918,0.11320794373750687,7.476034164428711,1.8973779678344727,-0.05632370710372925,0.04807385429739952,-0.08563050627708435,0.08137555420398712,0.03658211603760719,16.0
2026-04-27T18:38:17.136970,270426_171943.015625,1,58.1446418762207,8.009069442749023,-5.099999904632568,0.0,0.8600000143051147,11,248.74000549316406,1,270426_173459.015625,-3.9327056407928467,1.0253363847732544,0.19275109469890594,3.1084885597229004,1.8684598207473755,-0.16220559179782867,-0.015340277925133705,-0.10299035906791687,0.07401923835277557,0.04053642600774765,16.0
2026-04-27T18:38:17.142350,270426_171943.015625,1,58.1446418762207,8.009069442749023,-5.099999904632568,0.0,0.8600000143051147,11,248.74000549316406,1,270426_173459.015625,-3.9327056407928467,1.0253363847732544,0.19275109469890594,3.1084885597229004,1.8684598207473755,-0.16220559179782867,-0.015340277925133705,-0.10299035906791687,0.07401923835277557,0.04053642600774765,16.0
2026-04-27T18:38:17.145245,270426_171943.015625,1,58.1446418762207,8.009069442749023,-5.099999904632568,0.0,0.8600000143051147,11,248.74000549316406,1,270426_173459.015625,-3.9327056407928467,1.0253363847732544,0.19275109469890594,3.1084885597229004,1.8684598207473755,-0.16220559179782867,-0.015340277925133705,-0.10299035906791687,0.07401923835277557,0.04053642600774765,16.0
2026-04-27T18:38:17.189127,270426_171943.015625,1,58.1446418762207,8.009069442749023,-5.099999904632568,0.0,0.8600000143051147,11,248.74000549316406,1,270426_173459.015625,-3.9327056407928467,1.0253363847732544,0.19275109469890594,3.1084885597229004,1.8684598207473755,-0.16220559179782867,-0.015340277925133705,-0.10299035906791687,0.07401923835277557,0.04053642600774765,16.0
2026-04-27T18:38:17.189790,270426_171943.015625,1,58.1446418762207,8.009069442749023,-5.099999904632568,0.0,0.8600000143051147,11,248.74000549316406,1,270426_173459.015625,-3.9327056407928467,1.0253363847732544,0.19275109469890594,3.1084885597229004,1.8684598207473755,-0.16220559179782867,-0.015340277925133705,-0.10299035906791687,0.07401923835277557,0.04053642600774765,16.0
2026-04-27T18:38:20.232385,270426_171944.000000,1,58.1446418762207,8.009069442749023,-5.099999904632568,0.0,0.8100000023841858,12,248.74000549316406,1,270426_173515.015625,-3.4721474647521973,1.7179744243621826,0.2487194687128067,1.9719796180725098,2.0826756954193115,-0.05903422459959984,-0.045925289392471313,-0.2372070848941803,0.07066633552312851,0.048980288207530975,18.0
2026-04-27T18:38:20.237462,270426_171944.000000,1,58.1446418762207,8.009069442749023,-5.099999904632568,0.0,0.8100000023841858,12,248.74000549316406,1,270426_173515.015625,-3.4721474647521973,1.7179744243621826,0.2487194687128067,1.9719796180725098,2.0826756954193115,-0.05903422459959984,-0.045925289392471313,-0.2372070848941803,0.07066633552312851,0.048980288207530975,18.0
2026-04-27T18:38:20.249526,270426_171944.000000,1,58.1446418762207,8.009069442749023,-5.099999904632568,0.0,0.8100000023841858,12,248.74000549316406,1,270426_173515.015625,-3.4721474647521973,1.7179744243621826,0.2487194687128067,1.9719796180725098,2.0826756954193115,-0.05903422459959984,-0.045925289392471313,-0.2372070848941803,0.07066633552312851,0.048980288207530975,18.0
2026-04-27T18:38:20.270033,270426_171944.000000,1,58.1446418762207,8.009069442749023,-5.099999904632568,0.0,0.8100000023841858,12,248.74000549316406,1,270426_173515.015625,-3.4721474647521973,1.7179744243621826,0.2487194687128067,1.9719796180725098,2.0826756954193115,-0.05903422459959984,-0.045925289392471313,-0.2372070848941803,0.07066633552312851,0.048980288207530975,18.0
2026-04-27T18:38:23.205618,270426_171952.000000,1,58.1446418762207,8.009069442749023,-5.099999904632568,0.0,0.8100000023841858,12,248.74000549316406,1,270426_173515.015625,-3.8040199279785156,2.084887742996216,0.15117646753787994,3.0727739334106445,2.0424258708953857,-0.034826602786779404,-0.059171631932258606,0.13468538224697113,0.0804295614361763,0.051530927419662476,18.0
2026-04-27T18:38:26.258395,270426_172000.000000,1,58.1446418762207,8.009069442749023,-5.099999904632568,0.0,0.8600000143051147,11,248.74000549316406,1,270426_173515.015625,-3.637063503265381,2.3506739139556885,0.24620483815670013,2.0428214073181152,2.0528697967529297,-0.04639103263616562,0.03847504407167435,0.23871396481990814,0.07506924122571945,0.056154392659664154,16.0
2026-04-27T18:38:26.258671,270426_172000.000000,1,58.1446418762207,8.009069442749023,-5.099999904632568,0.0,0.8600000143051147,11,248.74000549316406,1,270426_173515.015625,-3.637063503265381,2.3506739139556885,0.24620483815670013,2.0428214073181152,2.0528697967529297,-0.04639103263616562,0.03847504407167435,0.23871396481990814,0.07506924122571945,0.056154392659664154,16.0
2026-04-27T18:38:26.258939,270426_172000.000000,1,58.1446418762207,8.009069442749023,-5.099999904632568,0.0,0.8600000143051147,11,248.74000549316406,1,270426_173515.015625,-3.637063503265381,2.3506739139556885,0.24620483815670013,2.0428214073181152,2.0528697967529297,-0.04639103263616562,0.03847504407167435,0.23871396481990814,0.07506924122571945,0.056154392659664154,16.0
2026-04-27T18:38:26.281357,270426_172000.000000,1,58.1446418762207,8.009069442749023,-5.099999904632568,0.0,0.8600000143051147,11,248.74000549316406,1,270426_173515.015625,-3.637063503265381,2.3506739139556885,0.24620483815670013,2.0428214073181152,2.0528697967529297,-0.04639103263616562,0.03847504407167435,0.23871396481990814,0.07506924122571945,0.056154392659664154,16.0
2026-04-27T18:38:29.284101,270426_172000.984375,1,58.1446418762207,8.009069442749023,-5.099999904632568,0.0,0.8600000143051147,11,248.74000549316406,1,270426_173515.015625,-3.955735921859741,3.0472095012664795,0.24344989657402039,1.112732172012329,2.2064101696014404,-0.010711238719522953,-0.035623203963041306,-0.2405911684036255,0.06640571355819702,0.057177625596523285,18.0
2026-04-27T18:38:32.331196,270426_172008.984375,1,58.1446418762207,8.009069442749023,-5.099999904632568,0.0,0.8600000143051147,11,248.74000549316406,1,270426_173516.000000,-3.7029104232788086,3.5155279636383057,0.11638341099023819,2.916321039199829,2.20935320854187,0.01682368293404579,0.04138106480240822,0.10746939480304718,0.07171047478914261,0.0504130944609642,18.0
2026-04-27T18:38:35.418152,270426_172010.000000,1,58.1446418762207,8.009069442749023,-5.099999904632568,0.0,0.8100000023841858,12,248.74000549316406,1,270426_173516.000000,-3.321965217590332,3.4724955558776855,0.12934133410453796,6.249203205108643,2.1167306900024414,-0.06997726857662201,0.03422939032316208,-0.10325073450803757,0.07176211476325989,0.04756942391395569,20.0
2026-04-27T18:38:38.364637,270426_172018.000000,1,58.14461135864258,8.009050369262695,-9.0,1.1399999856948853,0.8100000023841858,12,248.74000549316406,1,270426_173516.000000,-3.4102084636688232,3.138209581375122,0.16264760494232178,1.5436203479766846,2.283521890640259,0.06980590522289276,-0.037863604724407196,0.14194270968437195,0.07507365942001343,0.04558413475751877,20.0
2026-04-27T18:38:41.588093,270426_172026.000000,1,58.14459991455078,8.00904369354248,-12.300000190734863,2.069999933242798,0.8100000023841858,12,248.74000549316406,1,270426_173516.000000,-3.220684051513672,3.330596923828125,0.16563747823238373,1.7869219779968262,2.1229426860809326,-0.018213555216789246,-0.045114003121852875,0.15833118557929993,0.07110002636909485,0.04052815958857536,20.0
2026-04-27T18:38:41.588419,270426_172026.000000,1,58.14459991455078,8.00904369354248,-12.300000190734863,2.069999933242798,0.8100000023841858,12,248.74000549316406,1,270426_173516.000000,-3.220684051513672,3.330596923828125,0.16563747823238373,1.7869219779968262,2.1229426860809326,-0.018213555216789246,-0.045114003121852875,0.15833118557929993,0.07110002636909485,0.04052815958857536,20.0
2026-04-27T18:38:41.588585,270426_172026.000000,1,58.14459991455078,8.00904369354248,-12.300000190734863,2.069999933242798,0.8100000023841858,12,248.74000549316406,1,270426_173516.000000,-3.220684051513672,3.330596923828125,0.16563747823238373,1.7869219779968262,2.1229426860809326,-0.018213555216789246,-0.045114003121852875,0.15833118557929993,0.07110002636909485,0.04052815958857536,20.0
2026-04-27T18:38:41.683551,270426_172026.000000,1,58.14459991455078,8.00904369354248,-12.300000190734863,2.069999933242798,0.8100000023841858,12,248.74000549316406,1,270426_173516.000000,-3.220684051513672,3.330596923828125,0.16563747823238373,1.7869219779968262,2.1229426860809326,-0.018213555216789246,-0.045114003121852875,0.15833118557929993,0.07110002636909485,0.04052815958857536,20.0
2026-04-27T18:38:44.462560,270426_172027.015625,1,58.14459991455078,8.00903606414795,-12.899999618530273,2.0199999809265137,0.8100000023841858,12,248.74000549316406,1,270426_173516.000000,-3.0185437202453613,2.6820781230926514,0.11573120206594467,2.9167566299438477,2.452925443649292,-0.01690411940217018,0.049755074083805084,-0.10311349481344223,0.08686859160661697,0.04638099670410156,19.0
2026-04-27T18:38:47.501852,270426_172035.015625,1,58.14459991455078,8.009024620056152,-14.399999618530273,2.0199999809265137,0.8100000023841858,12,248.74000549316406,1,270426_173532.000000,-3.37750244140625,2.661519765853882,0.10487432032823563,5.299238204956055,2.4921367168426514,0.0335090197622776,-0.07668477296829224,-0.0632077008485794,0.08541778475046158,0.05109566077589989,17.0
2026-04-27T18:38:50.698355,270426_172043.015625,1,58.14459991455078,8.00902271270752,-14.399999618530273,0.0,0.8100000023841858,12,248.74000549316406,1,270426_173532.000000,-3.3163511753082275,2.7713284492492676,0.18939951062202454,3.166745901107788,2.5045526027679443,0.12085862457752228,-0.06390146166086197,-0.1310800164937973,0.08344072103500366,0.051205310970544815,15.0
2026-04-27T18:38:53.757041,270426_172044.000000,1,58.14459991455078,8.00902271270752,-14.399999618530273,0.0,0.8100000023841858,12,248.74000549316406,1,270426_173532.000000,-3.170743227005005,2.8625290393829346,0.1780865490436554,5.029937267303467,2.3092706203460693,0.1093379333615303,0.04023154452443123,0.13469022512435913,0.07423443347215652,0.05014212429523468,13.0
2026-04-27T18:38:53.757311,270426_172044.000000,1,58.14459991455078,8.00902271270752,-14.399999618530273,0.0,0.8100000023841858,12,248.74000549316406,1,270426_173532.000000,-3.170743227005005,2.8625290393829346,0.1780865490436554,5.029937267303467,2.3092706203460693,0.1093379333615303,0.04023154452443123,0.13469022512435913,0.07423443347215652,0.05014212429523468,13.0
2026-04-27T18:38:53.757528,270426_172044.000000,1,58.14459991455078,8.00902271270752,-14.399999618530273,0.0,0.8100000023841858,12,248.74000549316406,1,270426_173532.000000,-3.170743227005005,2.8625290393829346,0.1780865490436554,5.029937267303467,2.3092706203460693,0.1093379333615303,0.04023154452443123,0.13469022512435913,0.07423443347215652,0.05014212429523468,13.0
2026-04-27T18:38:53.763406,270426_172044.000000,1,58.14459991455078,8.00902271270752,-14.399999618530273,0.0,0.8100000023841858,12,248.74000549316406,1,270426_173532.000000,-3.170743227005005,2.8625290393829346,0.1780865490436554,5.029937267303467,2.3092706203460693,0.1093379333615303,0.04023154452443123,0.13469022512435913,0.07423443347215652,0.05014212429523468,13.0
2026-04-27T18:38:56.836629,270426_172110.000000,1,58.14458084106445,8.009012222290039,-15.899999618530273,0.0,0.8100000023841858,12,248.74000549316406,1,270426_173547.015625,-2.4338817596435547,2.09247088432312,0.33299848437309265,2.8760650157928467,2.4474799633026123,0.1675558239221573,0.1390874981880188,0.2519279718399048,0.08807307481765747,0.05772367864847183,15.0
2026-04-27T18:38:56.837023,270426_172110.000000,1,58.14458084106445,8.009012222290039,-15.899999618530273,0.0,0.8100000023841858,12,248.74000549316406,1,270426_173547.015625,-2.4338817596435547,2.09247088432312,0.33299848437309265,2.8760650157928467,2.4474799633026123,0.1675558239221573,0.1390874981880188,0.2519279718399048,0.08807307481765747,0.05772367864847183,15.0
2026-04-27T18:38:56.837328,270426_172110.000000,1,58.14458084106445,8.009012222290039,-15.899999618530273,0.0,0.8100000023841858,12,248.74000549316406,1,270426_173547.015625,-2.4338817596435547,2.09247088432312,0.33299848437309265,2.8760650157928467,2.4474799633026123,0.1675558239221573,0.1390874981880188,0.2519279718399048,0.08807307481765747,0.05772367864847183,15.0
2026-04-27T18:38:56.868572,270426_172110.000000,1,58.14458084106445,8.009012222290039,-15.899999618530273,0.0,0.8100000023841858,12,248.74000549316406,1,270426_173547.015625,-2.4338817596435547,2.09247088432312,0.33299848437309265,2.8760650157928467,2.4474799633026123,0.1675558239221573,0.1390874981880188,0.2519279718399048,0.08807307481765747,0.05772367864847183,15.0
2026-04-27T18:38:59.766421,270426_172118.000000,1,58.14458084106445,8.009012222290039,-15.899999618530273,0.0,0.8100000023841858,12,248.74000549316406,1,270426_173547.015625,-2.6734261512756348,1.7698962688446045,0.22036466002464294,1.2403150796890259,2.1984212398529053,0.024745194241404533,-0.09156464785337448,0.19890744984149933,0.08731796592473984,0.053298767656087875,13.0
2026-04-27T18:39:03.017441,270426_172119.015625,1,58.14458084106445,8.009012222290039,-15.899999618530273,0.0,0.8100000023841858,12,248.74000549316406,1,270426_173547.015625,-2.399376153945923,2.120082378387451,0.20149174332618713,1.0928640365600586,2.2105252742767334,-0.09378562867641449,0.022830335423350334,-0.1768670529127121,0.08411449939012527,0.05273965373635292,13.0
2026-04-27T18:39:06.072796,270426_172127.015625,1,58.14458084106445,8.009012222290039,-15.899999618530273,0.0,0.8100000023841858,12,248.74000549316406,1,270426_173547.015625,-2.838132381439209,2.7252871990203857,0.21399299800395966,3.6236274242401123,2.27943754196167,-0.0864718109369278,-0.19568228721618652,-0.004906219430267811,0.08997630327939987,0.058663662523031235,13.0
2026-04-27T18:39:08.921595,270426_172119.015625,1,58.14458084106445,8.009012222290039,-15.899999618530273,0.0,0.8100000023841858,12,248.74000549316406,1,270426_173602.000000,-3.0214264392852783,1.8381279706954956,0.19496259093284607,2.211790084838867,2.328416347503662,0.09894270449876785,-0.148845374584198,0.0778832957148552,0.08842182904481888,0.059301551431417465,15.0
2026-04-27T18:39:11.986881,270426_172118.000000,1,58.14458084106445,8.009012222290039,-15.899999618530273,0.0,0.8100000023841858,12,248.74000549316406,1,270426_173602.000000,-2.6590237617492676,2.030203104019165,0.11091705411672592,4.209805488586426,2.1711316108703613,-0.029545091092586517,-0.04959093779325485,0.09471229463815689,0.08011769503355026,0.05329422652721405,15.0
2026-04-27T18:39:15.056336,270426_172110.000000,1,58.14458084106445,8.009012222290039,-15.899999618530273,0.0,0.8100000023841858,12,248.74000549316406,1,270426_173602.000000,-3.800485134124756,2.1224701404571533,0.14684806764125824,2.718629837036133,2.279390573501587,-2.0174309611320496e-05,-0.08913353085517883,0.11670290678739548,0.08394809812307358,0.05723729729652405,15.0
2026-04-27T18:39:15.056610,270426_172110.000000,1,58.14458084106445,8.009012222290039,-15.899999618530273,0.0,0.8100000023841858,12,248.74000549316406,1,270426_173602.000000,-3.800485134124756,2.1224701404571533,0.14684806764125824,2.718629837036133,2.279390573501587,-2.0174309611320496e-05,-0.08913353085517883,0.11670290678739548,0.08394809812307358,0.05723729729652405,15.0
2026-04-27T18:39:15.056805,270426_172110.000000,1,58.14458084106445,8.009012222290039,-15.899999618530273,0.0,0.8100000023841858,12,248.74000549316406,1,270426_173602.000000,-3.800485134124756,2.1224701404571533,0.14684806764125824,2.718629837036133,2.279390573501587,-2.0174309611320496e-05,-0.08913353085517883,0.11670290678739548,0.08394809812307358,0.05723729729652405,15.0
2026-04-27T18:39:15.119696,270426_172110.000000,1,58.14458084106445,8.009012222290039,-15.899999618530273,0.0,0.8100000023841858,12,248.74000549316406,1,270426_173602.000000,-3.800485134124756,2.1224701404571533,0.14684806764125824,2.718629837036133,2.279390573501587,-2.0174309611320496e-05,-0.08913353085517883,0.11670290678739548,0.08394809812307358,0.05723729729652405,15.0
2026-04-27T18:39:15.120330,270426_172110.000000,1,58.14458084106445,8.009012222290039,-15.899999618530273,0.0,0.8100000023841858,12,248.74000549316406,1,270426_173602.000000,-3.800485134124756,2.1224701404571533,0.14684806764125824,2.718629837036133,2.279390573501587,-2.0174309611320496e-05,-0.08913353085517883,0.11670290678739548,0.08394809812307358,0.05723729729652405,15.0
2026-04-27T18:39:18.255568,270426_172044.000000,1,58.14459991455078,8.00902271270752,-14.399999618530273,0.0,0.8100000023841858,12,248.74000549316406,1,270426_173603.015625,-3.4537179470062256,2.0154099464416504,0.24932272732257843,1.5425846576690674,2.3404788970947266,0.05805971473455429,0.056279506534338,0.2358463853597641,0.0817708745598793,0.05825004726648331,16.0
2026-04-27T18:39:18.255848,270426_172044.000000,1,58.14459991455078,8.00902271270752,-14.399999618530273,0.0,0.8100000023841858,12,248.74000549316406,1,270426_173603.015625,-3.4537179470062256,2.0154099464416504,0.24932272732257843,1.5425846576690674,2.3404788970947266,0.05805971473455429,0.056279506534338,0.2358463853597641,0.0817708745598793,0.05825004726648331,16.0
2026-04-27T18:39:18.256471,270426_172044.000000,1,58.14459991455078,8.00902271270752,-14.399999618530273,0.0,0.8100000023841858,12,248.74000549316406,1,270426_173603.015625,-3.4537179470062256,2.0154099464416504,0.24932272732257843,1.5425846576690674,2.3404788970947266,0.05805971473455429,0.056279506534338,0.2358463853597641,0.0817708745598793,0.05825004726648331,16.0
2026-04-27T18:39:18.269215,270426_172044.000000,1,58.14459991455078,8.00902271270752,-14.399999618530273,0.0,0.8100000023841858,12,248.74000549316406,1,270426_173603.015625,-3.4537179470062256,2.0154099464416504,0.24932272732257843,1.5425846576690674,2.3404788970947266,0.05805971473455429,0.056279506534338,0.2358463853597641,0.0817708745598793,0.05825004726648331,16.0
2026-04-27T18:39:21.303089,270426_172043.015625,1,58.14459991455078,8.00902271270752,-14.399999618530273,0.0,0.8100000023841858,12,248.74000549316406,1,270426_173603.015625,-3.7219269275665283,2.0543622970581055,0.1421186327934265,2.000473737716675,2.1542165279388428,0.0046965316869318485,0.014169921167194843,0.1413324475288391,0.07462452352046967,0.04991169273853302,16.0
2026-04-27T18:39:21.303470,270426_172043.015625,1,58.14459991455078,8.00902271270752,-14.399999618530273,0.0,0.8100000023841858,12,248.74000549316406,1,270426_173603.015625,-3.7219269275665283,2.0543622970581055,0.1421186327934265,2.000473737716675,2.1542165279388428,0.0046965316869318485,0.014169921167194843,0.1413324475288391,0.07462452352046967,0.04991169273853302,16.0
2026-04-27T18:39:21.303733,270426_172043.015625,1,58.14459991455078,8.00902271270752,-14.399999618530273,0.0,0.8100000023841858,12,248.74000549316406,1,270426_173603.015625,-3.7219269275665283,2.0543622970581055,0.1421186327934265,2.000473737716675,2.1542165279388428,0.0046965316869318485,0.014169921167194843,0.1413324475288391,0.07462452352046967,0.04991169273853302,16.0
2026-04-27T18:39:21.378014,270426_172043.015625,1,58.14459991455078,8.00902271270752,-14.399999618530273,0.0,0.8100000023841858,12,248.74000549316406,1,270426_173603.015625,-3.7219269275665283,2.0543622970581055,0.1421186327934265,2.000473737716675,2.1542165279388428,0.0046965316869318485,0.014169921167194843,0.1413324475288391,0.07462452352046967,0.04991169273853302,16.0
2026-04-27T18:39:24.144251,270426_172035.015625,1,58.14459991455078,8.009024620056152,-14.399999618530273,2.0199999809265137,0.8100000023841858,12,248.74000549316406,1,270426_173603.015625,-3.847426652908325,1.9842699766159058,0.1317591369152069,2.580718517303467,2.1460769176483154,0.013742051087319851,-0.006273159757256508,0.13089032471179962,0.07542115449905396,0.044990841299295425,16.0
2026-04-27T18:39:27.221510,270426_172027.015625,1,58.14459991455078,8.00903606414795,-12.899999618530273,2.0199999809265137,0.8100000023841858,12,248.74000549316406,1,270426_173603.015625,-3.2660257816314697,1.1539829969406128,0.3103468120098114,4.741135120391846,2.355044364929199,0.1130729541182518,0.20035623013973236,0.208295539021492,0.08072924613952637,0.053959283977746964,16.0
2026-04-27T18:39:33.381369,270426_172018.000000,1,58.14461135864258,8.009050369262695,-9.0,1.1399999856948853,0.8100000023841858,12,248.74000549316406,1,270426_173603.015625,-4.180322170257568,0.1525542140007019,0.2756354808807373,2.4638609886169434,2.219719171524048,0.026463720947504044,-0.05392422527074814,0.2690107226371765,0.08012900501489639,0.05031917244195938,16.0
2026-04-27T18:39:36.354414,270426_172010.000000,1,58.1446418762207,8.009069442749023,-5.099999904632568,0.0,0.8100000023841858,12,248.74000549316406,1,270426_173603.015625,-4.29524040222168,0.08925459533929825,0.09429081529378891,5.0771803855896,2.24538254737854,0.00472639873623848,-0.04772471264004707,-0.08118356019258499,0.08089004456996918,0.051093652844429016,18.0
